STUDYID,DOMAIN,USUBJID,AESEQ,AETERM,AEMODIFY,AELLT,AELLTCD,AEDECOD,AEPTCD,AEHLT,AEHLTCD,AEHLGT,AEHLGTCD,AEBODSYS,AEBDSYCD,AESOC,AESOCCD,AESER,AEACN,AEREL,AEOUT,AESDTH,AESHOSP,AECONTRT,AETOXGR,EPOCH,VISITNUM,VISIT,AEDTC,AESTDTC,AEENDTC,AESTDY,AEENDY,AEENRF,AESEV
MAXIS-08,AE,MAXIS-08-408-001,1,INTERMITTENT FATIGUE,Fatigue,,,Fatigue,,,,,,,,,,N,DOSE NOT CHANGED,POSSIBLY RELATED,NOT RECOVERED/NOT RESOLVED,,,,1,,,999,2008-09-17,2008-09-17,,,,,MILD
MAXIS-08,AE,MAXIS-08-408-001,2,WEAKNESS,,WEAKNESS,28093.0,ASTHENIA,3052.0,ASTHENIC CONDITIONS,2228.0,,1195.0,GENERAL DISORDERS AND ADMINISTRATION SITE CONDITIONS,963.0,GENERAL DISORDERS AND ADMINISTRATION SITE CONDITIONS,963.0,N,DOSE NOT CHANGED,UNLIKELY RELATED,NOT RECOVERED/NOT RESOLVED,,,,1,,,999,2008-10-01,2008-10-01,,,,,MILD
MAXIS-08,AE,MAXIS-08-408-001,3,NAUSEA,,,,NAUSEA,3478.0,NAUSEA AND VOMITING SYMPTOMS,2916.0,,1137.0,GASTROINTESTINAL DISORDERS,952.0,GASTROINTESTINAL DISORDERS,952.0,N,DOSE NOT CHANGED,POSSIBLY RELATED,NOT RECOVERED/NOT RESOLVED,,,,1,,,999,2008-10-09,2008-10-09,,,,,MILD
MAXIS-08,AE,MAXIS-08-408-001,4,NAUSEA,,,,Nausea,,,,,,,,,,N,DOSE NOT CHANGED,POSSIBLY RELATED,NOT RECOVERED/NOT RESOLVED,,,,1,,,999,2008-10-09,2008-10-09,,,,,MILD
MAXIS-08,AE,MAXIS-08-408-001,5,MUSCLE PAIN,,MUSCLE PAIN,21329.0,MYALGIA,3463.0,MUSCLE PAINS,1394.0,,1178.0,MUSCULOSKELETAL AND CONNECTIVE TISSUE DISORDERS,955.0,MUSCULOSKELETAL AND CONNECTIVE TISSUE DISORDERS,955.0,N,DOSE NOT CHANGED,NOT RELATED,NOT RECOVERED/NOT RESOLVED,,,,2,,,999,2008-10-08,2008-10-08,,,,,MODERATE
MAXIS-08,AE,MAXIS-08-408-001,6,SUBCUTANEOUS NODULE ON CHEST PAINFUL,,,,SUBCUTANEOUS NODULE,7234.0,SKIN AND SUBCUTANEOUS CONDITIONS NEC,2441.0,,1121.0,SKIN AND SUBCUTANEOUS TISSUE DISORDERS,954.0,SKIN AND SUBCUTANEOUS TISSUE DISORDERS,954.0,N,DOSE NOT CHANGED,NOT RELATED,RECOVERED/RESOLVED,,,,1,,,999,2008-10-01,2008-10-01,2008-10-08,,,,MILD
MAXIS-08,AE,MAXIS-08-408-001,7,BACK PAIN,,,,BACK PAIN,3060.0,MUSCULOSKELETAL AND CONNECTIVE TISSUE PAIN AND DISCOMFORT,1982317.0,,988.0,MUSCULOSKELETAL AND CONNECTIVE TISSUE DISORDERS,955.0,MUSCULOSKELETAL AND CONNECTIVE TISSUE DISORDERS,955.0,N,DOSE NOT CHANGED,NOT RELATED,RECOVERED/RESOLVED,,,,2,,,999,2008-10-01,2008-10-01,2008-10-01,,,,MODERATE
MAXIS-08,AE,MAXIS-08-408-001,8,INTERMITTENT BACK PAIN,,,,BACK PAIN,3060.0,MUSCULOSKELETAL AND CONNECTIVE TISSUE PAIN AND DISCOMFORT,1982317.0,,988.0,MUSCULOSKELETAL AND CONNECTIVE TISSUE DISORDERS,955.0,MUSCULOSKELETAL AND CONNECTIVE TISSUE DISORDERS,955.0,N,DOSE NOT CHANGED,NOT RELATED,RECOVERED/RESOLVED,,,,1,,,999,2008-09-24,2008-09-24,2008-10-01,,,,MILD
MAXIS-08,AE,MAXIS-08-408-001,9,INTERMITTENT FATIGUE,,,,FATIGUE,3246.0,ASTHENIC CONDITIONS,2228.0,,1195.0,GENERAL DISORDERS AND ADMINISTRATION SITE CONDITIONS,963.0,GENERAL DISORDERS AND ADMINISTRATION SITE CONDITIONS,963.0,N,DOSE NOT CHANGED,POSSIBLY RELATED,NOT RECOVERED/NOT RESOLVED,,,,1,,,999,2008-09-17,2008-09-17,,,,,MILD
MAXIS-08,AE,MAXIS-08-408-001,10,RIGHT PARAVERTEBRAL AREA PAIN,,,,BACK PAIN,3060.0,MUSCULOSKELETAL AND CONNECTIVE TISSUE PAIN AND DISCOMFORT,1982317.0,,988.0,MUSCULOSKELETAL AND CONNECTIVE TISSUE DISORDERS,955.0,MUSCULOSKELETAL AND CONNECTIVE TISSUE DISORDERS,955.0,N,DOSE NOT CHANGED,NOT RELATED,NOT RECOVERED/NOT RESOLVED,,,,1,,,999,2008-09-17,2008-09-17,,,,,MILD
MAXIS-08,AE,MAXIS-08-408-001,11,INSOMNIA,,,,INSOMNIA,12685.0,DISTURBANCES IN INITIATING AND MAINTAINING SLEEP,2759.0,,1275.0,PSYCHIATRIC DISORDERS,969.0,PSYCHIATRIC DISORDERS,969.0,N,DOSE NOT CHANGED,NOT RELATED,RECOVERED/RESOLVED,,,,1,,,999,2008-09-10,2008-09-10,2008-09-18,,,,MILD
MAXIS-08,AE,MAXIS-08-408-001,12,INTERMITTENT LEFT ARM PAIN,,PAIN IN ARM,37068.0,PAIN IN EXTREMITY,15624.0,MUSCULOSKELETAL AND CONNECTIVE TISSUE PAIN AND DISCOMFORT,1982317.0,,988.0,MUSCULOSKELETAL AND CONNECTIVE TISSUE DISORDERS,955.0,MUSCULOSKELETAL AND CONNECTIVE TISSUE DISORDERS,955.0,N,DOSE NOT CHANGED,POSSIBLY RELATED,RECOVERED/RESOLVED,,,,1,,,999,2008-09-03,2008-09-03,2008-09-18,,,,MILD
MAXIS-08,AE,MAXIS-08-408-001,13,CONSTIPATION,,,,CONSTIPATION,3143.0,GASTROINTESTINAL ATONIC AND HYPOMOTILITY DISORDERS NEC,1346.0,,1228.0,GASTROINTESTINAL DISORDERS,952.0,GASTROINTESTINAL DISORDERS,952.0,N,DOSE NOT CHANGED,UNLIKELY RELATED,RECOVERED/RESOLVED,,,,1,,,999,2008-09-04,2008-09-04,200809.0,,,,MILD
MAXIS-08,AE,MAXIS-08-408-001,14,UPPER BACK PAIN,,UPPER BACK PAIN,48797.0,BACK PAIN,3060.0,MUSCULOSKELETAL AND CONNECTIVE TISSUE PAIN AND DISCOMFORT,1982317.0,,988.0,MUSCULOSKELETAL AND CONNECTIVE TISSUE DISORDERS,955.0,MUSCULOSKELETAL AND CONNECTIVE TISSUE DISORDERS,955.0,N,DOSE NOT CHANGED,NOT RELATED,RECOVERED/RESOLVED,,,,1,,,999,2008-09-10,2008-09-10,2008-09-11,,,,MILD
MAXIS-08,AE,MAXIS-08-408-001,15,INTERMITTENT VOMITING,,,,VOMITING,16889.0,NAUSEA AND VOMITING SYMPTOMS,2916.0,,1137.0,GASTROINTESTINAL DISORDERS,952.0,GASTROINTESTINAL DISORDERS,952.0,N,DOSE NOT CHANGED,UNLIKELY RELATED,RECOVERED/RESOLVED,,,,1,,,999,2008-09-10,2008-09-10,2008-10-01,,,,MILD
MAXIS-08,AE,MAXIS-08-408-001,16,NAUSEA,,,,NAUSEA,3478.0,NAUSEA AND VOMITING SYMPTOMS,2916.0,,1137.0,GASTROINTESTINAL DISORDERS,952.0,GASTROINTESTINAL DISORDERS,952.0,N,DOSE NOT CHANGED,POSSIBLY RELATED,RECOVERED/RESOLVED,,,,1,,,999,2008-09-10,2008-09-10,2008-09-11,,,,MILD
MAXIS-08,AE,MAXIS-08-408-001,17,BACK PAIN,,,,Back pain,,,,,,,,,,N,DOSE NOT CHANGED,NOT RELATED,RECOVERED/RESOLVED,,,,2,,,999,2008-10-01,2008-10-01,2008-10-01,,,,MODERATE
MAXIS-08,AE,MAXIS-08-408-001,18,CONSTIPATION,,,,Constipation,,,,,,,,,,N,DOSE NOT CHANGED,UNLIKELY RELATED,RECOVERED/RESOLVED,,,,1,,,999,2008-09-04,2008-09-04,200809.0,,,,MILD
MAXIS-08,AE,MAXIS-08-408-001,19,COUGH,,,,Cough,,,,,,,,,,U,DOSE NOT CHANGED,NOT RELATED,NOT RECOVERED/NOT RESOLVED,,,,1,,,999,2008-10-08,2008-10-08,,,,,MILD
MAXIS-08,AE,MAXIS-08-408-001,20,INSOMNIA,,,,Insomnia,,,,,,,,,,N,DOSE NOT CHANGED,NOT RELATED,RECOVERED/RESOLVED,,,,1,,,999,2008-09-10,2008-09-10,2008-09-18,,,,MILD
MAXIS-08,AE,MAXIS-08-408-001,21,INTERMITTENT BACK PAIN,Back pain,,,Back pain,,,,,,,,,,N,DOSE NOT CHANGED,NOT RELATED,RECOVERED/RESOLVED,,,,1,,,999,2008-09-24,2008-09-24,2008-10-01,,,,MILD
MAXIS-08,AE,MAXIS-08-408-001,22,INTERMITTENT LEFT ARM PAIN,Pain in arm,,,Pain in extremity,,,,,,,,,,N,DOSE NOT CHANGED,POSSIBLY RELATED,RECOVERED/RESOLVED,,,,1,,,999,2008-09-03,2008-09-03,2008-09-18,,,,MILD
MAXIS-08,AE,MAXIS-08-408-001,23,INTERMITTENT VOMITING,Vomiting,,,Vomiting,,,,,,,,,,N,DOSE NOT CHANGED,UNLIKELY RELATED,RECOVERED/RESOLVED,,,,1,,,999,2008-09-10,2008-09-10,2008-10-01,,,,MILD
MAXIS-08,AE,MAXIS-08-408-001,24,MUSCLE PAIN,,,,Myalgia,,,,,,,,,,N,DOSE NOT CHANGED,NOT RELATED,NOT RECOVERED/NOT RESOLVED,,,,2,,,999,2008-10-08,2008-10-08,,,,,MODERATE
MAXIS-08,AE,MAXIS-08-408-001,25,WEAKNESS,,,,Asthenia,,,,,,,,,,N,DOSE NOT CHANGED,UNLIKELY RELATED,NOT RECOVERED/NOT RESOLVED,,,,1,,,999,2008-10-01,2008-10-01,,,,,MILD
MAXIS-08,AE,MAXIS-08-408-001,26,VOMITING,,,,Vomiting,,,,,,,,,,N,DOSE NOT CHANGED,NOT RELATED,RECOVERED/RESOLVED,,,,1,,,999,2008-10-09,2008-10-09,2008-10-09,,,,MILD
MAXIS-08,AE,MAXIS-08-408-001,27,UPPER BACK PAIN,,,,Back pain,,,,,,,,,,N,DOSE NOT CHANGED,NOT RELATED,RECOVERED/RESOLVED,,,,1,,,999,2008-09-10,2008-09-10,2008-09-11,,,,MILD
MAXIS-08,AE,MAXIS-08-408-001,28,SUBCUTANEOUS NODULE ON CHEST PAINFUL,Subcutaneous nodule,,,Subcutaneous nodule,,,,,,,,,,N,DOSE NOT CHANGED,NOT RELATED,RECOVERED/RESOLVED,,,,1,,,999,2008-10-01,2008-10-01,2008-10-08,,,,MILD
MAXIS-08,AE,MAXIS-08-408-001,29,RUNNY NOSE,,,,Rhinorrhoea,,,,,,,,,,U,DOSE NOT CHANGED,NOT RELATED,NOT RECOVERED/NOT RESOLVED,,,,1,,,999,2008-10-08,2008-10-08,,,,,MILD
MAXIS-08,AE,MAXIS-08-408-001,30,RIGHT PARAVERTEBRAL AREA PAIN,Musculoskeletal pain,,,Musculoskeletal pain,,,,,,,,,,N,DOSE NOT CHANGED,NOT RELATED,NOT RECOVERED/NOT RESOLVED,,,,1,,,999,2008-09-17,2008-09-17,,,,,MILD
MAXIS-08,AE,MAXIS-08-408-001,31,RUNNY NOSE,,RUNNY NOSE,40380.0,RHINORRHOEA,5159.0,UPPER RESPIRATORY TRACT SIGNS AND SYMPTOMS,2135.0,,1260.0,"RESPIRATORY, THORACIC AND MEDIASTINAL DISORDERS",951.0,"RESPIRATORY, THORACIC AND MEDIASTINAL DISORDERS",951.0,U,DOSE NOT CHANGED,NOT RELATED,NOT RECOVERED/NOT RESOLVED,,,,1,,,999,2008-10-08,2008-10-08,,,,,MILD
MAXIS-08,AE,MAXIS-08-408-001,32,COUGH,,,,COUGH,3897.0,COUGHING AND ASSOCIATED SYMPTOMS,2132.0,,1260.0,"RESPIRATORY, THORACIC AND MEDIASTINAL DISORDERS",951.0,"RESPIRATORY, THORACIC AND MEDIASTINAL DISORDERS",951.0,U,DOSE NOT CHANGED,NOT RELATED,NOT RECOVERED/NOT RESOLVED,,,,1,,,999,2008-10-08,2008-10-08,,,,,MILD
MAXIS-08,AE,MAXIS-08-408-001,33,VOMITING,,,,VOMITING,16889.0,NAUSEA AND VOMITING SYMPTOMS,2916.0,,1137.0,GASTROINTESTINAL DISORDERS,952.0,GASTROINTESTINAL DISORDERS,952.0,N,DOSE NOT CHANGED,NOT RELATED,RECOVERED/RESOLVED,,,,1,,,999,2008-10-09,2008-10-09,2008-10-09,,,,MILD
MAXIS-08,AE,MAXIS-08-408-001,34,NAUSEA,,,,Nausea,,,,,,,,,,N,DOSE NOT CHANGED,POSSIBLY RELATED,RECOVERED/RESOLVED,,,,1,,,999,2008-09-10,2008-09-10,2008-09-11,,,,MILD
MAXIS-08,AE,MAXIS-08-408-001,1,UPPER QUADRANT ABDOMINAL PAIN,,UPPER ABDOMINAL PAIN,28159.0,ABDOMINAL PAIN UPPER,2987.0,GASTROINTESTINAL AND ABDOMINAL PAINS (EXCL ORAL AND THROAT),1942.0,,1137.0,GASTROINTESTINAL DISORDERS,952.0,GASTROINTESTINAL DISORDERS,952.0,N,DOSE NOT CHANGED,NOT RELATED,RECOVERED/RESOLVED,,,,1,,,999,200901,200901,2009-01-13,,,,MILD
MAXIS-08,AE,MAXIS-08-408-001,2,THROMBOCYTOPENIA,,,,THROMBOCYTOPENIA,3723.0,THROMBOCYTOPENIAS,2427.0,,1054.0,BLOOD AND LYMPHATIC SYSTEM DISORDERS,947.0,BLOOD AND LYMPHATIC SYSTEM DISORDERS,947.0,N,DOSE NOT CHANGED,POSSIBLY RELATED,RECOVERED/RESOLVED,,,,2,,,999,2009-01-13,2009-01-13,2009-01-20,,,,MODERATE
MAXIS-08,AE,MAXIS-08-408-001,3,HYPERBILIRUBINEMIA,,HYPERBILIRUBINEMIA,39339.0,HYPERBILIRUBINAEMIA,5156.0,CHOLESTASIS AND JAUNDICE,1666.0,,1029.0,HEPATOBILIARY DISORDERS,967.0,HEPATOBILIARY DISORDERS,967.0,N,DOSE NOT CHANGED,UNLIKELY RELATED,RECOVERED/RESOLVED WITH SEQUELAE,,,,3,,,999,2009-02-02,2009-02-02,2009-02-13,,,,SEVERE
MAXIS-08,AE,MAXIS-08-408-001,4,BLOOD IN STOOL,,BLOOD IN STOOL,36847.0,HAEMATOCHEZIA,12595.0,NON-SITE SPECIFIC GASTROINTESTINAL HAEMORRHAGES,1937.0,,1134.0,GASTROINTESTINAL DISORDERS,952.0,GASTROINTESTINAL DISORDERS,952.0,N,DOSE NOT CHANGED,NOT RELATED,NOT RECOVERED/NOT RESOLVED,,,,1,,,999,200901,200901,,,,,MILD
MAXIS-08,AE,MAXIS-08-408-001,5,SEVERE BACK PAIN,,,,BACK PAIN,3060.0,MUSCULOSKELETAL AND CONNECTIVE TISSUE PAIN AND DISCOMFORT,1982317.0,,988.0,MUSCULOSKELETAL AND CONNECTIVE TISSUE DISORDERS,955.0,MUSCULOSKELETAL AND CONNECTIVE TISSUE DISORDERS,955.0,N,DOSE NOT CHANGED,NOT RELATED,NOT RECOVERED/NOT RESOLVED,,,,3,,,999,2009-01-31,2009-01-31,,,,,SEVERE
MAXIS-08,AE,MAXIS-08-408-001,6,FATIGUE,,,,FATIGUE,3246.0,ASTHENIC CONDITIONS,2228.0,,1195.0,GENERAL DISORDERS AND ADMINISTRATION SITE CONDITIONS,963.0,GENERAL DISORDERS AND ADMINISTRATION SITE CONDITIONS,963.0,N,DOSE NOT CHANGED,POSSIBLY RELATED,NOT RECOVERED/NOT RESOLVED,,,,2,,,999,2009-02-02,2009-02-02,,,,,MODERATE
MAXIS-08,AE,MAXIS-08-408-001,7,ELEVATED AST,,AST INCREASED,20125.0,ASPARTATE AMINOTRANSFERASE INCREASED,3048.0,LIVER FUNCTION ANALYSES,2783.0,,1183.0,INVESTIGATIONS,944.0,INVESTIGATIONS,944.0,N,DOSE NOT CHANGED,UNLIKELY RELATED,NOT RECOVERED/NOT RESOLVED,,,,3,,,999,2009-02-02,2009-02-02,,,,,SEVERE
MAXIS-08,AE,MAXIS-08-408-001,8,HYPERBILIRUBINEMIA,,HYPERBILIRUBINEMIA,39339.0,HYPERBILIRUBINAEMIA,5156.0,CHOLESTASIS AND JAUNDICE,1666.0,,1029.0,HEPATOBILIARY DISORDERS,967.0,HEPATOBILIARY DISORDERS,967.0,Y,DOSE NOT CHANGED,NOT RELATED,NOT RECOVERED/NOT RESOLVED,,,,4,,,999,2009-02-13,2009-02-13,,,,,LIFE THREATENING
MAXIS-08,AE,MAXIS-08-408-001,9,WEAKNESS,,WEAKNESS,28093.0,ASTHENIA,3052.0,ASTHENIC CONDITIONS,2228.0,,1195.0,GENERAL DISORDERS AND ADMINISTRATION SITE CONDITIONS,963.0,GENERAL DISORDERS AND ADMINISTRATION SITE CONDITIONS,963.0,Y,DOSE NOT CHANGED,NOT RELATED,NOT RECOVERED/NOT RESOLVED,,,,3,,,999,2009-02-13,2009-02-13,,,,,SEVERE
MAXIS-08,AE,MAXIS-08-408-001,10,LETHARGY,,,,LETHARGY,3412.0,DISTURBANCES IN CONSCIOUSNESS NEC,2530.0,,1115.0,NERVOUS SYSTEM DISORDERS,948.0,NERVOUS SYSTEM DISORDERS,948.0,Y,DOSE NOT CHANGED,NOT RELATED,NOT RECOVERED/NOT RESOLVED,,,,3,,,999,2009-02-13,2009-02-13,,,,,SEVERE
MAXIS-08,AE,MAXIS-08-408-001,11,ABDOMINAL PAIN,,,,ABDOMINAL PAIN,16293.0,GASTROINTESTINAL AND ABDOMINAL PAINS (EXCL ORAL AND THROAT),1942.0,,1137.0,GASTROINTESTINAL DISORDERS,952.0,GASTROINTESTINAL DISORDERS,952.0,Y,DOSE NOT CHANGED,NOT RELATED,NOT RECOVERED/NOT RESOLVED,,,,3,,,999,2009-02-13,2009-02-13,,,,,SEVERE
MAXIS-08,AE,MAXIS-08-408-001,12,HYPOGLYCEMIA,,HYPOGLYCEMIA,39241.0,HYPOGLYCAEMIA,16525.0,HYPOGLYCAEMIC CONDITIONS NEC,1710.0,,1072.0,METABOLISM AND NUTRITION DISORDERS,957.0,METABOLISM AND NUTRITION DISORDERS,957.0,Y,DOSE NOT CHANGED,NOT RELATED,RECOVERED/RESOLVED,,,,3,,,999,2009-02-13,2009-02-13,2009-02-14,,,,SEVERE
MAXIS-08,AE,MAXIS-08-408-001,13,DISEASE PROGRESSION,,,,DISEASE PROGRESSION,18048.0,GENERAL SIGNS AND SYMPTOMS NEC,2237.0,,1195.0,GENERAL DISORDERS AND ADMINISTRATION SITE CONDITIONS,963.0,GENERAL DISORDERS AND ADMINISTRATION SITE CONDITIONS,963.0,Y,DOSE NOT CHANGED,NOT RELATED,FATAL,,,,5,,,999,2009-02-13,2009-02-13,2009-02-18,,,,FATAL
MAXIS-08,AE,MAXIS-08-408-001,14,HYPOALBUMINEMIA,,HYPOALBUMINEMIA,39256.0,HYPOALBUMINAEMIA,13174.0,PROTEIN METABOLISM DISORDERS NEC,2922.0,,1289.0,METABOLISM AND NUTRITION DISORDERS,957.0,METABOLISM AND NUTRITION DISORDERS,957.0,N,DOSE NOT CHANGED,NOT RELATED,RECOVERED/RESOLVED,,,,2,,,999,2008-12-30,2008-12-30,2009-02-02,,,,MODERATE
MAXIS-08,AE,MAXIS-08-408-001,15,THROMBOCYTOPENIA,,,,THROMBOCYTOPENIA,3723.0,THROMBOCYTOPENIAS,2427.0,,1054.0,BLOOD AND LYMPHATIC SYSTEM DISORDERS,947.0,BLOOD AND LYMPHATIC SYSTEM DISORDERS,947.0,N,DOSE NOT CHANGED,POSSIBLY RELATED,RECOVERED/RESOLVED,,,,2,,,999,2009-01-27,2009-01-27,2009-02-02,,,,MODERATE
MAXIS-08,AE,MAXIS-08-408-001,16,"FEVER, GRADE 1",,SLIGHT FEVER,35691.0,PYREXIA,3601.0,FEBRILE DISORDERS,2220.0,,1140.0,GENERAL DISORDERS AND ADMINISTRATION SITE CONDITIONS,963.0,GENERAL DISORDERS AND ADMINISTRATION SITE CONDITIONS,963.0,N,DOSE NOT CHANGED,NOT RELATED,RECOVERED/RESOLVED,,,,1,,,999,2009-01-20,2009-01-20,2009-01-20,,,,MILD
MAXIS-08,AE,MAXIS-08-408-001,17,FEW LEFT BASE CRACKLES,,CRACKLES,26360.0,CREPITATIONS,16989.0,GENERAL SIGNS AND SYMPTOMS NEC,2237.0,,1195.0,GENERAL DISORDERS AND ADMINISTRATION SITE CONDITIONS,963.0,GENERAL DISORDERS AND ADMINISTRATION SITE CONDITIONS,963.0,N,DOSE NOT CHANGED,NOT RELATED,RECOVERED/RESOLVED,,,,1,,,999,2008-12-30,2008-12-30,2009-01-06,,,,MILD
MAXIS-08,AE,MAXIS-08-408-001,18,FEVER,,FEVER,20707.0,PYREXIA,3601.0,FEBRILE DISORDERS,2220.0,,1140.0,GENERAL DISORDERS AND ADMINISTRATION SITE CONDITIONS,963.0,GENERAL DISORDERS AND ADMINISTRATION SITE CONDITIONS,963.0,N,DOSE NOT CHANGED,POSSIBLY RELATED,RECOVERED/RESOLVED,,,,1,,,999,2009-01-06,2009-01-06,2009-01-06,,,,MILD
MAXIS-08,AE,MAXIS-08-408-001,19,ABDOMINAL PAIN (LEFT LOWER QUADRANT),,LOWER ABDOMINAL PAIN,27796.0,ABDOMINAL PAIN LOWER,2986.0,GASTROINTESTINAL AND ABDOMINAL PAINS (EXCL ORAL AND THROAT),1942.0,,1137.0,GASTROINTESTINAL DISORDERS,952.0,GASTROINTESTINAL DISORDERS,952.0,N,DOSE NOT CHANGED,NOT RELATED,RECOVERED/RESOLVED,,,,2,,,999,2009-01-04,2009-01-04,2009-01-06,,,,MODERATE
MAXIS-08,AE,MAXIS-08-408-001,20,LOSS OF APPETITE,,APPETITE LOST,20178.0,DECREASED APPETITE,17546.0,APPETITE DISORDERS,1664.0,,1063.0,METABOLISM AND NUTRITION DISORDERS,957.0,METABOLISM AND NUTRITION DISORDERS,957.0,N,DOSE NOT CHANGED,POSSIBLY RELATED,RECOVERED/RESOLVED,,,,1,,,999,2008-01-02,2008-01-02,2008-12-30,,,,MILD
MAXIS-08,AE,MAXIS-08-408-001,21,FATIGUE,,,,Fatigue,,,,,,,,,,N,DOSE NOT CHANGED,POSSIBLY RELATED,NOT RECOVERED/NOT RESOLVED,,,,2,,,999,2009-02-02,2009-02-02,,,,,MODERATE
MAXIS-08,AE,MAXIS-08-408-001,22,WEAKNESS,,,,Asthenia,,,,,,,,,,Y,DOSE NOT CHANGED,NOT RELATED,NOT RECOVERED/NOT RESOLVED,,,,3,,,999,2009-02-13,2009-02-13,,,,,SEVERE
MAXIS-08,AE,MAXIS-08-408-001,23,UPPER QUADRANT ABDOMINAL PAIN,Upper abdominal pain,,,Abdominal pain upper,,,,,,,,,,N,DOSE NOT CHANGED,NOT RELATED,RECOVERED/RESOLVED,,,,1,,,999,200901,200901,2009-01-13,,,,MILD
MAXIS-08,AE,MAXIS-08-408-001,24,THROMBOCYTOPENIA,,,,Thrombocytopenia,,,,,,,,,,N,DOSE NOT CHANGED,POSSIBLY RELATED,RECOVERED/RESOLVED,,,,2,,,999,2009-01-27,2009-01-27,2009-02-02,,,,MODERATE
MAXIS-08,AE,MAXIS-08-408-001,25,THROMBOCYTOPENIA,,,,Thrombocytopenia,,,,,,,,,,N,DOSE NOT CHANGED,POSSIBLY RELATED,RECOVERED/RESOLVED,,,,2,,,999,2009-01-13,2009-01-13,2009-01-20,,,,MODERATE
MAXIS-08,AE,MAXIS-08-408-001,26,SWOLLEN LEG (PAIN),Swelling of legs,,,Oedema peripheral,,,,,,,,,,N,DOSE NOT CHANGED,NOT RELATED,RECOVERED/RESOLVED,,,,2,,,999,2009-01-04,2009-01-04,2009-01-13,,,,MODERATE
MAXIS-08,AE,MAXIS-08-408-001,27,SWOLLEN LEG (PAIN),Leg pain,,,Pain in extremity,,,,,,,,,,N,DOSE NOT CHANGED,NOT RELATED,RECOVERED/RESOLVED,,,,2,,,999,2009-01-04,2009-01-04,2009-01-13,,,,MODERATE
MAXIS-08,AE,MAXIS-08-408-001,28,SEVERE BACK PAIN,Back pain,,,Back pain,,,,,,,,,,N,DOSE NOT CHANGED,NOT RELATED,NOT RECOVERED/NOT RESOLVED,,,,3,,,999,2009-01-31,2009-01-31,,,,,SEVERE
MAXIS-08,AE,MAXIS-08-408-001,29,LOSS OF APPETITE,Appetite lost,,,Decreased appetite,,,,,,,,,,N,DOSE NOT CHANGED,POSSIBLY RELATED,RECOVERED/RESOLVED,,,,1,,,999,2008-01-02,2008-01-02,2008-12-30,,,,MILD
MAXIS-08,AE,MAXIS-08-408-001,30,SWOLLEN LEG (PAIN),,SWELLING OF LEGS,27665.0,OEDEMA PERIPHERAL,3496.0,OEDEMA NEC,2236.0,,1195.0,GENERAL DISORDERS AND ADMINISTRATION SITE CONDITIONS,963.0,GENERAL DISORDERS AND ADMINISTRATION SITE CONDITIONS,963.0,N,DOSE NOT CHANGED,NOT RELATED,RECOVERED/RESOLVED,,,,2,,,999,2009-01-04,2009-01-04,2009-01-13,,,,MODERATE
MAXIS-08,AE,MAXIS-08-408-001,31,LETHARGY,,,,Lethargy,,,,,,,,,,Y,DOSE NOT CHANGED,NOT RELATED,NOT RECOVERED/NOT RESOLVED,,,,3,,,999,2009-02-13,2009-02-13,,,,,SEVERE
MAXIS-08,AE,MAXIS-08-408-001,32,HYPOGLYCEMIA,,,,Hypoglycaemia,,,,,,,,,,Y,DOSE NOT CHANGED,NOT RELATED,RECOVERED/RESOLVED,,,,3,,,999,2009-02-13,2009-02-13,2009-02-14,,,,SEVERE
MAXIS-08,AE,MAXIS-08-408-001,33,HYPOALBUMINEMIA,,,,Hypoalbuminaemia,,,,,,,,,,N,DOSE NOT CHANGED,NOT RELATED,RECOVERED/RESOLVED,,,,2,,,999,2008-12-30,2008-12-30,2009-02-02,,,,MODERATE
MAXIS-08,AE,MAXIS-08-408-001,34,HYPERBILIRUBINEMIA,,,,Hyperbilirubinaemia,,,,,,,,,,Y,DOSE NOT CHANGED,NOT RELATED,NOT RECOVERED/NOT RESOLVED,,,,4,,,999,2009-02-13,2009-02-13,,,,,LIFE THREATENING
MAXIS-08,AE,MAXIS-08-408-001,35,HYPERBILIRUBINEMIA,,,,Hyperbilirubinaemia,,,,,,,,,,N,DOSE NOT CHANGED,UNLIKELY RELATED,RECOVERED/RESOLVED WITH SEQUELAE,,,,3,,,999,2009-02-02,2009-02-02,2009-02-13,,,,SEVERE
MAXIS-08,AE,MAXIS-08-408-001,36,HYPERBILIRUBINEMIA,,,,Hyperbilirubinaemia,,,,,,,,,,N,DRUG INTERRUPTED,POSSIBLY RELATED,RECOVERED/RESOLVED WITH SEQUELAE,,,,2,,,999,2009-01-27,2009-01-27,2009-02-02,,,,MODERATE
MAXIS-08,AE,MAXIS-08-408-001,37,FEW LEFT BASE CRACKLES,Crackles,,,Crepitations,,,,,,,,,,N,DOSE NOT CHANGED,NOT RELATED,RECOVERED/RESOLVED,,,,1,,,999,2008-12-30,2008-12-30,2009-01-06,,,,MILD
MAXIS-08,AE,MAXIS-08-408-001,38,"FEVER, GRADE 1",Fever,,,Pyrexia,,,,,,,,,,N,DOSE NOT CHANGED,NOT RELATED,RECOVERED/RESOLVED,,,,1,,,999,2009-01-20,2009-01-20,2009-01-20,,,,MILD
MAXIS-08,AE,MAXIS-08-408-001,39,FEVER,,,,Pyrexia,,,,,,,,,,N,DOSE NOT CHANGED,POSSIBLY RELATED,RECOVERED/RESOLVED,,,,1,,,999,2009-01-06,2009-01-06,2009-01-06,,,,MILD
MAXIS-08,AE,MAXIS-08-408-001,40,LEG EDEMA,,,,Oedema peripheral,,,,,,,,,,N,DOSE NOT CHANGED,NOT RELATED,NOT RECOVERED/NOT RESOLVED,,,,2,,,999,2009-02-02,2009-02-02,,,,,MODERATE
MAXIS-08,AE,MAXIS-08-408-001,41,LEG EDEMA,,LEG EDEMA,56613.0,OEDEMA PERIPHERAL,3496.0,OEDEMA NEC,2236.0,,1195.0,GENERAL DISORDERS AND ADMINISTRATION SITE CONDITIONS,963.0,GENERAL DISORDERS AND ADMINISTRATION SITE CONDITIONS,963.0,N,DOSE NOT CHANGED,NOT RELATED,NOT RECOVERED/NOT RESOLVED,,,,2,,,999,2009-02-02,2009-02-02,,,,,MODERATE
MAXIS-08,AE,MAXIS-08-408-001,42,HYPERBILIRUBINEMIA,,HYPERBILIRUBINEMIA,39339.0,HYPERBILIRUBINAEMIA,5156.0,CHOLESTASIS AND JAUNDICE,1666.0,,1029.0,HEPATOBILIARY DISORDERS,967.0,HEPATOBILIARY DISORDERS,967.0,N,DRUG INTERRUPTED,POSSIBLY RELATED,RECOVERED/RESOLVED WITH SEQUELAE,,,,2,,,999,2009-01-27,2009-01-27,2009-02-02,,,,MODERATE
MAXIS-08,AE,MAXIS-08-408-001,43,BLOOD IN STOOL,,,,Haematochezia,,,,,,,,,,N,DOSE NOT CHANGED,NOT RELATED,NOT RECOVERED/NOT RESOLVED,,,,1,,,999,200901,200901,,,,,MILD
MAXIS-08,AE,MAXIS-08-408-001,44,ABDOMINAL PAIN,,,,Abdominal pain,,,,,,,,,,Y,DOSE NOT CHANGED,NOT RELATED,NOT RECOVERED/NOT RESOLVED,,,,3,,,999,2009-02-13,2009-02-13,,,,,SEVERE
MAXIS-08,AE,MAXIS-08-408-001,45,ELEVATED AST,AST increased,,,Aspartate aminotransferase increased,,,,,,,,,,N,DOSE NOT CHANGED,UNLIKELY RELATED,NOT RECOVERED/NOT RESOLVED,,,,3,,,999,2009-02-02,2009-02-02,,,,,SEVERE
MAXIS-08,AE,MAXIS-08-408-001,46,DISEASE PROGRESSION,,,,Disease progression,,,,,,,,,,Y,DOSE NOT CHANGED,NOT RELATED,FATAL,,,,5,,,999,2009-02-13,2009-02-13,2009-02-18,,,,FATAL
MAXIS-08,AE,MAXIS-08-408-001,47,ABDOMINAL PAIN (LEFT LOWER QUADRANT),Abdominal pain lower,,,Abdominal pain lower,,,,,,,,,,N,DOSE NOT CHANGED,NOT RELATED,RECOVERED/RESOLVED,,,,2,,,999,2009-01-04,2009-01-04,2009-01-06,,,,MODERATE
MAXIS-08,AE,MAXIS-08-408-001,1,DECREASED BREATH SOUNDS,Breath sounds decreased,,,Breath sounds abnormal,,,,,,,,,,N,DOSE NOT CHANGED,NOT RELATED,NOT RECOVERED/NOT RESOLVED,,,,1,,,999,2009-01-27,2009-01-27,,,,,MILD
MAXIS-08,AE,MAXIS-08-408-001,2,ELEVATED ALT,ALT increased,,,Alanine aminotransferase increased,,,,,,,,,,N,DRUG WITHDRAWN,UNLIKELY RELATED,RECOVERED/RESOLVED,,,,2,,,999,2009-02-02,2009-02-02,2009-02-27,,,,MODERATE
MAXIS-08,AE,MAXIS-08-408-001,3,ELEVATED AST,AST increased,,,Aspartate aminotransferase increased,,,,,,,,,,N,DOSE NOT CHANGED,UNLIKELY RELATED,RECOVERED/RESOLVED,,,,3,,,999,2009-02-02,2009-02-02,2009-02-27,,,,SEVERE
MAXIS-08,AE,MAXIS-08-408-001,4,HYPERBILIRUBINEMIA,,,,Hyperbilirubinaemia,,,,,,,,,,N,DOSE NOT CHANGED,POSSIBLY RELATED,RECOVERED/RESOLVED,,,,2,,,999,2009-02-02,2009-02-02,2009-02-27,,,,MODERATE
MAXIS-08,AE,MAXIS-08-408-001,5,HYPERBILIRUBINEMIA,,HYPERBILIRUBINEMIA,39339.0,HYPERBILIRUBINAEMIA,5156.0,CHOLESTASIS AND JAUNDICE,1666.0,,1029.0,HEPATOBILIARY DISORDERS,967.0,HEPATOBILIARY DISORDERS,967.0,N,DOSE NOT CHANGED,POSSIBLY RELATED,RECOVERED/RESOLVED,,,,2,,,999,2009-02-02,2009-02-02,2009-02-27,,,,MODERATE
MAXIS-08,AE,MAXIS-08-408-001,6,INSOMNIA,,,,Insomnia,,,,,,,,,,N,DOSE NOT CHANGED,POSSIBLY RELATED,RECOVERED/RESOLVED,,,,1,,,999,2009-01-27,2009-01-27,2009-01-28,,,,MILD
MAXIS-08,AE,MAXIS-08-408-001,7,PORT-A-CATH MALFUNCTION,Device malfunction,,,Device malfunction,,,,,,,,,,N,DRUG INTERRUPTED,NOT RELATED,RECOVERED/RESOLVED,,,,2,,,999,2009-01-27,2009-01-27,2009-01-28,,,,MODERATE
MAXIS-08,AE,MAXIS-08-408-001,8,PORT-A-CATH MALFUNCTION,,,,DEVICE MALFUNCTION,19273.0,DEVICE MALFUNCTION EVENTS NEC,2072856.0,,2071148.0,GENERAL DISORDERS AND ADMINISTRATION SITE CONDITIONS,963.0,GENERAL DISORDERS AND ADMINISTRATION SITE CONDITIONS,963.0,N,DRUG INTERRUPTED,NOT RELATED,RECOVERED/RESOLVED,,,,2,,,999,2009-01-27,2009-01-27,2009-01-28,,,,MODERATE
MAXIS-08,AE,MAXIS-08-408-001,9,INSOMNIA,,,,INSOMNIA,12685.0,DISTURBANCES IN INITIATING AND MAINTAINING SLEEP,2759.0,,1275.0,PSYCHIATRIC DISORDERS,969.0,PSYCHIATRIC DISORDERS,969.0,N,DOSE NOT CHANGED,POSSIBLY RELATED,RECOVERED/RESOLVED,,,,1,,,999,2009-01-27,2009-01-27,2009-01-28,,,,MILD
MAXIS-08,AE,MAXIS-08-408-001,10,ELEVATED AST,,,,ASPARTATE AMINOTRANSFERASE INCREASED,3048.0,LIVER FUNCTION ANALYSES,2783.0,,1183.0,INVESTIGATIONS,944.0,INVESTIGATIONS,944.0,N,DOSE NOT CHANGED,UNLIKELY RELATED,RECOVERED/RESOLVED,,,,3,,,999,2009-02-02,2009-02-02,2009-02-27,,,,SEVERE
MAXIS-08,AE,MAXIS-08-408-001,11,ELEVATED ALT,,,,ALANINE AMINOTRANSFERASE INCREASED,5149.0,LIVER FUNCTION ANALYSES,2783.0,,1183.0,INVESTIGATIONS,944.0,INVESTIGATIONS,944.0,N,DRUG WITHDRAWN,UNLIKELY RELATED,RECOVERED/RESOLVED,,,,2,,,999,2009-02-02,2009-02-02,2009-02-27,,,,MODERATE
MAXIS-08,AE,MAXIS-08-408-001,12,HYPONATREMIA,,HYPONATREMIA,39232.0,HYPONATRAEMIA,3360.0,SODIUM IMBALANCE,2245.0,,1151.0,METABOLISM AND NUTRITION DISORDERS,957.0,METABOLISM AND NUTRITION DISORDERS,957.0,N,DOSE NOT CHANGED,PROBABLY RELATED,RECOVERED/RESOLVED,,,,1,,,999,2009-02-02,2009-02-02,2009-02-27,,,,MILD
MAXIS-08,AE,MAXIS-08-408-001,13,HYPONATREMIA,,,,Hyponatraemia,,,,,,,,,,N,DOSE NOT CHANGED,PROBABLY RELATED,RECOVERED/RESOLVED,,,,1,,,999,2009-02-02,2009-02-02,2009-02-27,,,,MILD
MAXIS-08,AE,MAXIS-08-408-001,14,DECREASED BREATH SOUNDS,,BREATH SOUNDS DECREASED,29892.0,BREATH SOUNDS ABNORMAL,19804.0,PHYSICAL EXAMINATION PROCEDURES,2816.0,,1293.0,INVESTIGATIONS,944.0,INVESTIGATIONS,944.0,N,DOSE NOT CHANGED,NOT RELATED,NOT RECOVERED/NOT RESOLVED,,,,1,,,999,2009-01-27,2009-01-27,,,,,MILD
MAXIS-08,AE,MAXIS-08-408-001,1,EPIGASTRIC DISCOMFORT,,,,Epigastric discomfort,,,,,,,,,,N,DOSE NOT CHANGED,NOT RELATED,NOT RECOVERED/NOT RESOLVED,,,,1,,,999,2009-07-23,2009-07-23,,,,,MILD
MAXIS-08,AE,MAXIS-08-408-001,2,LEFT HIP PAIN,Pain in (l) hip,,,Arthralgia,,,,,,,,,,N,DOSE NOT CHANGED,NOT RELATED,RECOVERED/RESOLVED,,,,1,,,999,2009-09-01,2009-09-01,2009-09-08,,,,MILD
MAXIS-08,AE,MAXIS-08-408-001,3,COLD (RUNNY NOSE),,RUNNY NOSE,40380.0,RHINORRHOEA,5159.0,UPPER RESPIRATORY TRACT SIGNS AND SYMPTOMS,2135.0,,1260.0,"RESPIRATORY, THORACIC AND MEDIASTINAL DISORDERS",951.0,"RESPIRATORY, THORACIC AND MEDIASTINAL DISORDERS",951.0,N,DOSE NOT CHANGED,NOT RELATED,RECOVERED/RESOLVED,,,,1,,,999,2009-08-22,2009-08-22,2009-09-01,,,,MILD
MAXIS-08,AE,MAXIS-08-408-001,4,LEFT ILIAC PAIN,Iliac fossa pain,,,Abdominal pain lower,,,,,,,,,,N,DOSE NOT CHANGED,NOT RELATED,RECOVERED/RESOLVED,,,,1,,,999,2009-06-30,2009-06-30,2009-08-04,,,,MILD
MAXIS-08,AE,MAXIS-08-408-001,5,LEFT LOWER EXTREMITY BONE PAIN,Bone pain,,,Bone pain,,,,,,,,,,N,DOSE NOT CHANGED,NOT RELATED,RECOVERED/RESOLVED,,,,1,,,999,2009-03-03,2009-03-03,2009-03-04,,,,MILD
MAXIS-08,AE,MAXIS-08-408-001,6,LOSS OF APPETITE,Appetite lost,,,Decreased appetite,,,,,,,,,,N,DOSE NOT CHANGED,POSSIBLY RELATED,RECOVERED/RESOLVED,,,,1,,,999,2009-02-15,2009-02-15,2009-02-18,,,,MILD
MAXIS-08,AE,MAXIS-08-408-001,7,LOSS OF BALANCE,Balance impaired NOS,,,Balance disorder,,,,,,,,,,N,DOSE NOT CHANGED,NOT RELATED,RECOVERED/RESOLVED,,,,1,,,999,2009-04-02,2009-04-02,2009-04-02,,,,MILD
MAXIS-08,AE,MAXIS-08-408-001,8,LOSS OF BALANCE,Balance impaired NOS,,,Balance disorder,,,,,,,,,,N,DOSE NOT CHANGED,NOT RELATED,RECOVERED/RESOLVED,,,,1,,,999,2009-04-04,2009-04-04,2009-04-04,,,,MILD
MAXIS-08,AE,MAXIS-08-408-001,9,MICROSCOPIC HEMATURIA,,,,Haematuria,,,,,,,,,,N,DOSE NOT CHANGED,NOT RELATED,RECOVERED/RESOLVED,,,,1,,,999,2009-08-04,2009-08-04,2009-08-10,,,,MILD
MAXIS-08,AE,MAXIS-08-408-001,10,NAUSEA,,,,Nausea,,,,,,,,,,N,DOSE NOT CHANGED,PROBABLY RELATED,RECOVERED/RESOLVED,,,,1,,,999,2009-02-15,2009-02-15,2009-02-18,,,,MILD
MAXIS-08,AE,MAXIS-08-408-001,11,NAUSEA,,,,Nausea,,,,,,,,,,N,DOSE NOT CHANGED,PROBABLY RELATED,RECOVERED/RESOLVED,,,,1,,,999,2009-02-25,2009-02-25,2009-02-26,,,,MILD
MAXIS-08,AE,MAXIS-08-408-001,12,SOLE PAIN ON WALKING,Foot pain,,,Pain in extremity,,,,,,,,,,N,DOSE NOT CHANGED,NOT RELATED,RECOVERED/RESOLVED,,,,1,,,999,2009-07-14,2009-07-14,2009-07-22,,,,MILD
MAXIS-08,AE,MAXIS-08-408-001,13,COLD (RUNNY NOSE),Runny nose,,,Rhinorrhoea,,,,,,,,,,N,DOSE NOT CHANGED,NOT RELATED,RECOVERED/RESOLVED,,,,1,,,999,2009-08-22,2009-08-22,2009-09-01,,,,MILD
MAXIS-08,AE,MAXIS-08-408-001,14,CONSTIPATION,,,,Constipation,,,,,,,,,,N,DOSE NOT CHANGED,NOT RELATED,RECOVERED/RESOLVED,,,,1,,,999,2009-02-15,2009-02-15,2009-02-17,,,,MILD
MAXIS-08,AE,MAXIS-08-408-001,15,CONSTIPATION,,,,Constipation,,,,,,,,,,N,DOSE NOT CHANGED,NOT RELATED,RECOVERED/RESOLVED,,,,2,,,999,2009-04-23,2009-04-23,2009-04-28,,,,MODERATE
MAXIS-08,AE,MAXIS-08-408-001,16,INTERMITTENT CONSTIPATION,Constipation,,,Constipation,,,,,,,,,,N,DOSE NOT CHANGED,NOT RELATED,NOT RECOVERED/NOT RESOLVED,,,,1,,,999,2009-06-10,2009-06-10,,,,,MILD
MAXIS-08,AE,MAXIS-08-408-001,17,INTERMITTENT CONSTIPATION,Constipation,,,Constipation,,,,,,,,,,N,DOSE NOT CHANGED,NOT RELATED,RECOVERED/RESOLVED,,,,1,,,999,2009-04-08,2009-04-08,2009-04-10,,,,MILD
MAXIS-08,AE,MAXIS-08-408-001,18,INTERMITTENT CONSTIPATION,Constipation,,,Constipation,,,,,,,,,,N,DOSE NOT CHANGED,NOT RELATED,RECOVERED/RESOLVED,,,,1,,,999,2009-03-25,2009-03-25,2009-03-27,,,,MILD
MAXIS-08,AE,MAXIS-08-408-001,19,INTERMITTENT CONSTIPATION,Constipation,,,Constipation,,,,,,,,,,N,DOSE NOT CHANGED,NOT RELATED,RECOVERED/RESOLVED,,,,1,,,999,2009-03-11,2009-03-11,2009-03-13,,,,MILD
MAXIS-08,AE,MAXIS-08-408-001,20,INTERMITTENT CONSTIPATION,Constipation,,,Constipation,,,,,,,,,,N,DOSE NOT CHANGED,NOT RELATED,RECOVERED/RESOLVED,,,,1,,,999,2009-03-03,2009-03-03,2009-03-10,,,,MILD
MAXIS-08,AE,MAXIS-08-408-001,21,INCREASE NUMBNESS BILATERAL TOES,Numbness in toes,,,Hypoaesthesia,,,,,,,,,,N,DOSE NOT CHANGED,PROBABLY RELATED,RECOVERED/RESOLVED,,,,2,,,999,2009-07-14,2009-07-14,2009-07-22,,,,MODERATE
MAXIS-08,AE,MAXIS-08-408-001,22,FINGER/TOES PARESTHESIA,Paresthesia of fingers,,,Paraesthesia,,,,,,,,,,N,DOSE NOT CHANGED,POSSIBLY RELATED,RECOVERED/RESOLVED,,,,2,,,999,2009-03-03,2009-03-03,2009-03-04,,,,MODERATE
MAXIS-08,AE,MAXIS-08-408-001,23,COUGH,,,,Cough,,,,,,,,,,N,DOSE NOT CHANGED,NOT RELATED,RECOVERED/RESOLVED,,,,1,,,999,2009-03-18,2009-03-18,2009-03-24,,,,MILD
MAXIS-08,AE,MAXIS-08-408-001,24,DRY SKIN,,,,Dry skin,,,,,,,,,,N,DOSE NOT CHANGED,UNLIKELY RELATED,RECOVERED/RESOLVED,,,,1,,,999,2009-02-18,2009-02-18,2009-02-24,,,,MILD
MAXIS-08,AE,MAXIS-08-408-001,25,FATIGUE,,,,Fatigue,,,,,,,,,,N,DOSE NOT CHANGED,PROBABLY RELATED,RECOVERED/RESOLVED,,,,1,,,999,2009-02-25,2009-02-25,2009-03-03,,,,MILD
MAXIS-08,AE,MAXIS-08-408-001,26,LEFT HIP PAIN,Pain in (l) hip,,,Arthralgia,,,,,,,,,,N,DOSE NOT CHANGED,NOT RELATED,RECOVERED/RESOLVED,,,,1,,,999,2009-08-04,2009-08-04,2009-08-11,,,,MILD
MAXIS-08,AE,MAXIS-08-408-001,27,MICROSCOPIC HEMATURIA,,MICROSCOPIC HEMATURIA,51751.0,HAEMATURIA,11280.0,URINARY ABNORMALITIES,2199.0,,1138.0,RENAL AND URINARY DISORDERS,953.0,RENAL AND URINARY DISORDERS,953.0,N,DOSE NOT CHANGED,NOT RELATED,RECOVERED/RESOLVED,,,,1,,,999,2009-08-04,2009-08-04,2009-08-10,,,,MILD
MAXIS-08,AE,MAXIS-08-408-001,28,COUGH,,,,COUGH,3897.0,COUGHING AND ASSOCIATED SYMPTOMS,2132.0,,1260.0,"RESPIRATORY, THORACIC AND MEDIASTINAL DISORDERS",951.0,"RESPIRATORY, THORACIC AND MEDIASTINAL DISORDERS",951.0,N,DOSE NOT CHANGED,NOT RELATED,RECOVERED/RESOLVED,,,,1,,,999,2009-03-18,2009-03-18,2009-03-24,,,,MILD
MAXIS-08,AE,MAXIS-08-408-001,29,LEFT ILIAC PAIN,,SACRO-ILIAC PAIN,38651.0,ARTHRALGIA,3045.0,JOINT RELATED SIGNS AND SYMPTOMS,2418.0,,970.0,MUSCULOSKELETAL AND CONNECTIVE TISSUE DISORDERS,955.0,MUSCULOSKELETAL AND CONNECTIVE TISSUE DISORDERS,955.0,N,DOSE NOT CHANGED,NOT RELATED,RECOVERED/RESOLVED,,,,1,,,999,2009-06-30,2009-06-30,2009-08-04,,,,MILD
MAXIS-08,AE,MAXIS-08-408-001,30,LOSS OF APPETITE,,APPETITE LOST,20178.0,DECREASED APPETITE,17546.0,APPETITE DISORDERS,1664.0,,1063.0,METABOLISM AND NUTRITION DISORDERS,957.0,METABOLISM AND NUTRITION DISORDERS,957.0,N,DOSE NOT CHANGED,POSSIBLY RELATED,RECOVERED/RESOLVED,,,,1,,,999,2009-02-15,2009-02-15,2009-02-18,,,,MILD
MAXIS-08,AE,MAXIS-08-408-001,31,NAUSEA,,,,NAUSEA,3478.0,NAUSEA AND VOMITING SYMPTOMS,2916.0,,1137.0,GASTROINTESTINAL DISORDERS,952.0,GASTROINTESTINAL DISORDERS,952.0,N,DOSE NOT CHANGED,PROBABLY RELATED,RECOVERED/RESOLVED,,,,1,,,999,2009-02-15,2009-02-15,2009-02-18,,,,MILD
MAXIS-08,AE,MAXIS-08-408-001,32,CONSTIPATION,,,,CONSTIPATION,3143.0,GASTROINTESTINAL ATONIC AND HYPOMOTILITY DISORDERS NEC,1346.0,,1228.0,GASTROINTESTINAL DISORDERS,952.0,GASTROINTESTINAL DISORDERS,952.0,N,DOSE NOT CHANGED,NOT RELATED,RECOVERED/RESOLVED,,,,1,,,999,2009-02-15,2009-02-15,2009-02-17,,,,MILD
MAXIS-08,AE,MAXIS-08-408-001,33,DRY SKIN,,,,DRY SKIN,3190.0,DERMAL AND EPIDERMAL CONDITIONS NEC,1510.0,,1053.0,SKIN AND SUBCUTANEOUS TISSUE DISORDERS,954.0,SKIN AND SUBCUTANEOUS TISSUE DISORDERS,954.0,N,DOSE NOT CHANGED,UNLIKELY RELATED,RECOVERED/RESOLVED,,,,1,,,999,2009-02-18,2009-02-18,2009-02-24,,,,MILD
MAXIS-08,AE,MAXIS-08-408-001,34,LEFT LOWER EXTREMITY BONE PAIN,,PAIN BONE,39099.0,BONE PAIN,6002.0,BONE RELATED SIGNS AND SYMPTOMS,2409.0,,1041.0,MUSCULOSKELETAL AND CONNECTIVE TISSUE DISORDERS,955.0,MUSCULOSKELETAL AND CONNECTIVE TISSUE DISORDERS,955.0,N,DOSE NOT CHANGED,NOT RELATED,RECOVERED/RESOLVED,,,,1,,,999,2009-03-03,2009-03-03,2009-03-04,,,,MILD
MAXIS-08,AE,MAXIS-08-408-001,35,NAUSEA,,,,NAUSEA,3478.0,NAUSEA AND VOMITING SYMPTOMS,2916.0,,1137.0,GASTROINTESTINAL DISORDERS,952.0,GASTROINTESTINAL DISORDERS,952.0,N,DOSE NOT CHANGED,PROBABLY RELATED,RECOVERED/RESOLVED,,,,1,,,999,2009-02-25,2009-02-25,2009-02-26,,,,MILD
MAXIS-08,AE,MAXIS-08-408-001,36,FINGER/TOES PARESTHESIA,,PARESTHESIA,39002.0,PARAESTHESIA,12682.0,PARAESTHESIAS AND DYSAESTHESIAS,2534.0,,1115.0,NERVOUS SYSTEM DISORDERS,948.0,NERVOUS SYSTEM DISORDERS,948.0,N,DOSE NOT CHANGED,POSSIBLY RELATED,RECOVERED/RESOLVED,,,,2,,,999,2009-03-03,2009-03-03,2009-03-04,,,,MODERATE
MAXIS-08,AE,MAXIS-08-408-001,37,INTERMITTENT CONSTIPATION,,,,CONSTIPATION,3143.0,GASTROINTESTINAL ATONIC AND HYPOMOTILITY DISORDERS NEC,1346.0,,1228.0,GASTROINTESTINAL DISORDERS,952.0,GASTROINTESTINAL DISORDERS,952.0,N,DOSE NOT CHANGED,NOT RELATED,RECOVERED/RESOLVED,,,,1,,,999,2009-03-03,2009-03-03,2009-03-10,,,,MILD
MAXIS-08,AE,MAXIS-08-408-001,38,FATIGUE,,,,FATIGUE,3246.0,ASTHENIC CONDITIONS,2228.0,,1195.0,GENERAL DISORDERS AND ADMINISTRATION SITE CONDITIONS,963.0,GENERAL DISORDERS AND ADMINISTRATION SITE CONDITIONS,963.0,N,DOSE NOT CHANGED,PROBABLY RELATED,RECOVERED/RESOLVED,,,,1,,,999,2009-02-25,2009-02-25,2009-03-03,,,,MILD
MAXIS-08,AE,MAXIS-08-408-001,39,INTERMITTENT CONSTIPATION,,,,CONSTIPATION,3143.0,GASTROINTESTINAL ATONIC AND HYPOMOTILITY DISORDERS NEC,1346.0,,1228.0,GASTROINTESTINAL DISORDERS,952.0,GASTROINTESTINAL DISORDERS,952.0,N,DOSE NOT CHANGED,NOT RELATED,RECOVERED/RESOLVED,,,,1,,,999,2009-03-11,2009-03-11,2009-03-13,,,,MILD
MAXIS-08,AE,MAXIS-08-408-001,40,INTERMITTENT CONSTIPATION,,,,CONSTIPATION,3143.0,GASTROINTESTINAL ATONIC AND HYPOMOTILITY DISORDERS NEC,1346.0,,1228.0,GASTROINTESTINAL DISORDERS,952.0,GASTROINTESTINAL DISORDERS,952.0,N,DOSE NOT CHANGED,NOT RELATED,RECOVERED/RESOLVED,,,,1,,,999,2009-03-25,2009-03-25,2009-03-27,,,,MILD
MAXIS-08,AE,MAXIS-08-408-001,41,LOSS OF BALANCE,,BALANCE DIFFICULTY,39848.0,BALANCE DISORDER,17541.0,CEREBELLAR COORDINATION AND BALANCE DISTURBANCES,1868.0,,1115.0,NERVOUS SYSTEM DISORDERS,948.0,NERVOUS SYSTEM DISORDERS,948.0,N,DOSE NOT CHANGED,NOT RELATED,RECOVERED/RESOLVED,,,,1,,,999,2009-04-02,2009-04-02,2009-04-02,,,,MILD
MAXIS-08,AE,MAXIS-08-408-001,42,LOSS OF BALANCE,,BALANCE DIFFICULTY,39848.0,BALANCE DISORDER,17541.0,CEREBELLAR COORDINATION AND BALANCE DISTURBANCES,1868.0,,1115.0,NERVOUS SYSTEM DISORDERS,948.0,NERVOUS SYSTEM DISORDERS,948.0,N,DOSE NOT CHANGED,NOT RELATED,RECOVERED/RESOLVED,,,,1,,,999,2009-04-04,2009-04-04,2009-04-04,,,,MILD
MAXIS-08,AE,MAXIS-08-408-001,43,INTERMITTENT CONSTIPATION,,,,CONSTIPATION,3143.0,GASTROINTESTINAL ATONIC AND HYPOMOTILITY DISORDERS NEC,1346.0,,1228.0,GASTROINTESTINAL DISORDERS,952.0,GASTROINTESTINAL DISORDERS,952.0,N,DOSE NOT CHANGED,NOT RELATED,RECOVERED/RESOLVED,,,,1,,,999,2009-04-08,2009-04-08,2009-04-10,,,,MILD
MAXIS-08,AE,MAXIS-08-408-001,44,INTERMITTENT FATIGUE,,,,FATIGUE,3246.0,ASTHENIC CONDITIONS,2228.0,,1195.0,GENERAL DISORDERS AND ADMINISTRATION SITE CONDITIONS,963.0,GENERAL DISORDERS AND ADMINISTRATION SITE CONDITIONS,963.0,N,DOSE NOT CHANGED,NOT RELATED,RECOVERED/RESOLVED,,,,1,,,999,2009-04-21,2009-04-21,2009-06-16,,,,MILD
MAXIS-08,AE,MAXIS-08-408-001,45,CONSTIPATION,,,,CONSTIPATION,3143.0,GASTROINTESTINAL ATONIC AND HYPOMOTILITY DISORDERS NEC,1346.0,,1228.0,GASTROINTESTINAL DISORDERS,952.0,GASTROINTESTINAL DISORDERS,952.0,N,DOSE NOT CHANGED,NOT RELATED,RECOVERED/RESOLVED,,,,2,,,999,2009-04-23,2009-04-23,2009-04-28,,,,MODERATE
MAXIS-08,AE,MAXIS-08-408-001,46,INTERMITTENT CONSTIPATION,,,,CONSTIPATION,3143.0,GASTROINTESTINAL ATONIC AND HYPOMOTILITY DISORDERS NEC,1346.0,,1228.0,GASTROINTESTINAL DISORDERS,952.0,GASTROINTESTINAL DISORDERS,952.0,N,DOSE NOT CHANGED,NOT RELATED,NOT RECOVERED/NOT RESOLVED,,,,1,,,999,2009-06-10,2009-06-10,,,,,MILD
MAXIS-08,AE,MAXIS-08-408-001,47,INCREASE NUMBNESS BILATERAL TOES,,NUMBNESS IN TOES,47972.0,HYPOAESTHESIA,3350.0,SENSORY ABNORMALITIES NEC,2536.0,,1115.0,NERVOUS SYSTEM DISORDERS,948.0,NERVOUS SYSTEM DISORDERS,948.0,N,DOSE NOT CHANGED,PROBABLY RELATED,RECOVERED/RESOLVED,,,,2,,,999,2009-07-14,2009-07-14,2009-07-22,,,,MODERATE
MAXIS-08,AE,MAXIS-08-408-001,48,SOLE PAIN ON WALKING,,FOOT PAIN,48884.0,PAIN IN EXTREMITY,15624.0,MUSCULOSKELETAL AND CONNECTIVE TISSUE PAIN AND DISCOMFORT,1982317.0,,988.0,MUSCULOSKELETAL AND CONNECTIVE TISSUE DISORDERS,955.0,MUSCULOSKELETAL AND CONNECTIVE TISSUE DISORDERS,955.0,N,DOSE NOT CHANGED,NOT RELATED,RECOVERED/RESOLVED,,,,1,,,999,2009-07-14,2009-07-14,2009-07-22,,,,MILD
MAXIS-08,AE,MAXIS-08-408-001,49,EPIGASTRIC DISCOMFORT,,,,EPIGASTRIC DISCOMFORT,12900.0,DYSPEPTIC SIGNS AND SYMPTOMS,1940.0,,1137.0,GASTROINTESTINAL DISORDERS,952.0,GASTROINTESTINAL DISORDERS,952.0,N,DOSE NOT CHANGED,NOT RELATED,NOT RECOVERED/NOT RESOLVED,,,,1,,,999,2009-07-23,2009-07-23,,,,,MILD
MAXIS-08,AE,MAXIS-08-408-001,50,LEFT HIP PAIN,,PAIN IN HIP,22796.0,ARTHRALGIA,3045.0,JOINT RELATED SIGNS AND SYMPTOMS,2418.0,,970.0,MUSCULOSKELETAL AND CONNECTIVE TISSUE DISORDERS,955.0,MUSCULOSKELETAL AND CONNECTIVE TISSUE DISORDERS,955.0,N,DOSE NOT CHANGED,NOT RELATED,RECOVERED/RESOLVED,,,,1,,,999,2009-08-04,2009-08-04,2009-08-11,,,,MILD
MAXIS-08,AE,MAXIS-08-408-001,51,LEFT HIP PAIN,,PAIN IN HIP,22796.0,ARTHRALGIA,3045.0,JOINT RELATED SIGNS AND SYMPTOMS,2418.0,,970.0,MUSCULOSKELETAL AND CONNECTIVE TISSUE DISORDERS,955.0,MUSCULOSKELETAL AND CONNECTIVE TISSUE DISORDERS,955.0,N,DOSE NOT CHANGED,NOT RELATED,RECOVERED/RESOLVED,,,,1,,,999,2009-09-01,2009-09-01,2009-09-08,,,,MILD
MAXIS-08,AE,MAXIS-08-408-001,52,INTERMITTENT FATIGUE,Fatigue,,,Fatigue,,,,,,,,,,N,DOSE NOT CHANGED,NOT RELATED,RECOVERED/RESOLVED,,,,1,,,999,2009-04-21,2009-04-21,2009-06-16,,,,MILD
MAXIS-08,AE,MAXIS-08-408-001,1,INTERMITTENT INSOMNIA,Insomnia,,,Insomnia,,,,,,,,,,N,DOSE NOT CHANGED,NOT RELATED,NOT RECOVERED/NOT RESOLVED,,,,1,,,999,2009-06-04,2009-06-04,,,,,MILD
MAXIS-08,AE,MAXIS-08-408-001,2,PAIN AT PORT-A-CATH SITE,Catheter site pain,,,Catheter site pain,,,,,,,,,,N,DOSE NOT CHANGED,NOT RELATED,RECOVERED/RESOLVED,,,,1,,,999,2009-06-02,2009-06-02,2009-06-03,,,,MILD
MAXIS-08,AE,MAXIS-08-408-001,3,RIGHT UPPER QUADRANT DISCOMFORT,,RIGHT UPPER QUADRANT PAIN,38661.0,ABDOMINAL PAIN UPPER,2987.0,GASTROINTESTINAL AND ABDOMINAL PAINS (EXCL ORAL AND THROAT),1942.0,,1137.0,GASTROINTESTINAL DISORDERS,952.0,GASTROINTESTINAL DISORDERS,952.0,N,DOSE NOT CHANGED,NOT RELATED,NOT RECOVERED/NOT RESOLVED,,,,1,,,999,2009-06-10,2009-06-10,,,,,MILD
MAXIS-08,AE,MAXIS-08-408-001,4,THROAT REDDENED,,RED THROAT,48779.0,PHARYNGEAL ERYTHEMA,14382.0,PHARYNGEAL DISORDERS (EXCL INFECTIONS AND NEOPLASMS),1560.0,,986.0,"RESPIRATORY, THORACIC AND MEDIASTINAL DISORDERS",951.0,"RESPIRATORY, THORACIC AND MEDIASTINAL DISORDERS",951.0,N,DOSE NOT CHANGED,POSSIBLY RELATED,RECOVERED/RESOLVED,,,,1,,,999,2009-06-09,2009-06-09,2009-07-07,,,,MILD
MAXIS-08,AE,MAXIS-08-408-001,5,INTERMITTENT INSOMNIA,,,,INSOMNIA,12685.0,DISTURBANCES IN INITIATING AND MAINTAINING SLEEP,2759.0,,1275.0,PSYCHIATRIC DISORDERS,969.0,PSYCHIATRIC DISORDERS,969.0,N,DOSE NOT CHANGED,NOT RELATED,NOT RECOVERED/NOT RESOLVED,,,,1,,,999,2009-06-04,2009-06-04,,,,,MILD
MAXIS-08,AE,MAXIS-08-408-001,6,PAIN AT PORT-A-CATH SITE,,,,INFUSION SITE PAIN,13152.0,INFUSION SITE REACTIONS,1982313.0,,1297.0,GENERAL DISORDERS AND ADMINISTRATION SITE CONDITIONS,963.0,GENERAL DISORDERS AND ADMINISTRATION SITE CONDITIONS,963.0,N,DOSE NOT CHANGED,NOT RELATED,RECOVERED/RESOLVED,,,,1,,,999,2009-06-02,2009-06-02,2009-06-03,,,,MILD
MAXIS-08,AE,MAXIS-08-408-001,7,RIGHT UPPER QUADRANT DISCOMFORT,Right upper quadrant pain,,,Abdominal pain upper,,,,,,,,,,N,DOSE NOT CHANGED,NOT RELATED,NOT RECOVERED/NOT RESOLVED,,,,1,,,999,2009-06-10,2009-06-10,,,,,MILD
MAXIS-08,AE,MAXIS-08-408-001,8,THROAT REDDENED,Red throat,,,Pharyngeal erythema,,,,,,,,,,N,DOSE NOT CHANGED,POSSIBLY RELATED,RECOVERED/RESOLVED,,,,1,,,999,2009-06-09,2009-06-09,2009-07-07,,,,MILD
MAXIS-08,AE,MAXIS-08-408-001,1,DRY TONGUE,,,,TONGUE DRY,11044.0,TONGUE SIGNS AND SYMPTOMS,1901.0,,1223.0,GASTROINTESTINAL DISORDERS,952.0,GASTROINTESTINAL DISORDERS,952.0,N,DOSE NOT CHANGED,NOT RELATED,RECOVERED/RESOLVED,,,,1,,,999,2009-06-15,2009-06-15,2009-06-16,,,,MILD
MAXIS-08,AE,MAXIS-08-408-001,2,THROMBOCYTOPENIA,,,,Thrombocytopenia,,,,,,,,,,N,DOSE NOT CHANGED,POSSIBLY RELATED,RECOVERED/RESOLVED,,,,3,,,999,2009-07-24,2009-07-24,2009-08-04,,,,SEVERE
MAXIS-08,AE,MAXIS-08-408-001,3,THROMBOCYTOPENIA,,,,Thrombocytopenia,,,,,,,,,,N,DOSE NOT CHANGED,POSSIBLY RELATED,RECOVERED/RESOLVED,,,,2,,,999,2009-07-10,2009-07-10,2009-07-24,,,,MODERATE
MAXIS-08,AE,MAXIS-08-408-001,4,THROMBOCYTOPENIA,,,,Thrombocytopenia,,,,,,,,,,N,DRUG INTERRUPTED,POSSIBLY RELATED,RECOVERED/RESOLVED,,,,3,,,999,2009-06-30,2009-06-30,2009-07-10,,,,SEVERE
MAXIS-08,AE,MAXIS-08-408-001,5,LOSS OF TASTE,,,,Ageusia,,,,,,,,,,N,DOSE NOT CHANGED,NOT RELATED,NOT RECOVERED/NOT RESOLVED,,,,1,,,999,2009-06-15,2009-06-15,,,,,MILD
MAXIS-08,AE,MAXIS-08-408-001,6,COUGH WITH BLOOD,Coughing blood,,,Haemoptysis,,,,,,,,,,N,DOSE NOT CHANGED,NOT RELATED,RECOVERED/RESOLVED,,,,1,,,999,2009-06-23,2009-06-23,2009-06-30,,,,MILD
MAXIS-08,AE,MAXIS-08-408-001,7,HEADACHE,,,,Headache,,,,,,,,,,N,DOSE NOT CHANGED,POSSIBLY RELATED,NOT RECOVERED/NOT RESOLVED,,,,3,,,999,2009-08-04,2009-08-04,,,,,SEVERE
MAXIS-08,AE,MAXIS-08-408-001,8,DRY TONGUE,Tongue dry,,,Tongue dry,,,,,,,,,,N,DOSE NOT CHANGED,NOT RELATED,RECOVERED/RESOLVED,,,,1,,,999,2009-06-15,2009-06-15,2009-06-16,,,,MILD
MAXIS-08,AE,MAXIS-08-408-001,9,THROMBOCYTOPENIA,,,,Thrombocytopenia,,,,,,,,,,N,DOSE NOT CHANGED,POSSIBLY RELATED,NOT RECOVERED/NOT RESOLVED,,,,2,,,999,2009-08-04,2009-08-04,,,,,MODERATE
MAXIS-08,AE,MAXIS-08-408-001,10,INSOMNIA,,,,Insomnia,,,,,,,,,,N,DOSE NOT CHANGED,NOT RELATED,RECOVERED/RESOLVED,,,,1,,,999,2009-06-09,2009-06-09,2009-06-10,,,,MILD
MAXIS-08,AE,MAXIS-08-408-001,11,COUGH WITH BLOOD,,COUGHING BLOOD,39658.0,HAEMOPTYSIS,3290.0,COUGHING AND ASSOCIATED SYMPTOMS,2132.0,,1260.0,"RESPIRATORY, THORACIC AND MEDIASTINAL DISORDERS",951.0,"RESPIRATORY, THORACIC AND MEDIASTINAL DISORDERS",951.0,N,DOSE NOT CHANGED,NOT RELATED,RECOVERED/RESOLVED,,,,1,,,999,2009-06-23,2009-06-23,2009-06-30,,,,MILD
MAXIS-08,AE,MAXIS-08-408-001,12,HEADACHE,,,,HEADACHE,14964.0,HEADACHES NEC,2516.0,,1111.0,NERVOUS SYSTEM DISORDERS,948.0,NERVOUS SYSTEM DISORDERS,948.0,N,DOSE NOT CHANGED,POSSIBLY RELATED,NOT RECOVERED/NOT RESOLVED,,,,3,,,999,2009-08-04,2009-08-04,,,,,SEVERE
MAXIS-08,AE,MAXIS-08-408-001,13,THROMBOCYTOPENIA,,,,THROMBOCYTOPENIA,3723.0,THROMBOCYTOPENIAS,2427.0,,1054.0,BLOOD AND LYMPHATIC SYSTEM DISORDERS,947.0,BLOOD AND LYMPHATIC SYSTEM DISORDERS,947.0,N,DOSE NOT CHANGED,POSSIBLY RELATED,NOT RECOVERED/NOT RESOLVED,,,,2,,,999,2009-08-04,2009-08-04,,,,,MODERATE
MAXIS-08,AE,MAXIS-08-408-001,14,THROMBOCYTOPENIA,,,,THROMBOCYTOPENIA,3723.0,THROMBOCYTOPENIAS,2427.0,,1054.0,BLOOD AND LYMPHATIC SYSTEM DISORDERS,947.0,BLOOD AND LYMPHATIC SYSTEM DISORDERS,947.0,N,DOSE NOT CHANGED,POSSIBLY RELATED,RECOVERED/RESOLVED,,,,3,,,999,2009-07-24,2009-07-24,2009-08-04,,,,SEVERE
MAXIS-08,AE,MAXIS-08-408-001,15,THROMBOCYTOPENIA,,,,THROMBOCYTOPENIA,3723.0,THROMBOCYTOPENIAS,2427.0,,1054.0,BLOOD AND LYMPHATIC SYSTEM DISORDERS,947.0,BLOOD AND LYMPHATIC SYSTEM DISORDERS,947.0,N,DOSE NOT CHANGED,POSSIBLY RELATED,RECOVERED/RESOLVED,,,,2,,,999,2009-07-10,2009-07-10,2009-07-24,,,,MODERATE
MAXIS-08,AE,MAXIS-08-408-001,16,THROMBOCYTOPENIA,,,,THROMBOCYTOPENIA,3723.0,THROMBOCYTOPENIAS,2427.0,,1054.0,BLOOD AND LYMPHATIC SYSTEM DISORDERS,947.0,BLOOD AND LYMPHATIC SYSTEM DISORDERS,947.0,N,DRUG INTERRUPTED,POSSIBLY RELATED,RECOVERED/RESOLVED,,,,3,,,999,2009-06-30,2009-06-30,2009-07-10,,,,SEVERE
MAXIS-08,AE,MAXIS-08-408-001,17,INSOMNIA,,,,INSOMNIA,12685.0,DISTURBANCES IN INITIATING AND MAINTAINING SLEEP,2759.0,,1275.0,PSYCHIATRIC DISORDERS,969.0,PSYCHIATRIC DISORDERS,969.0,N,DOSE NOT CHANGED,NOT RELATED,RECOVERED/RESOLVED,,,,1,,,999,2009-06-09,2009-06-09,2009-06-10,,,,MILD
MAXIS-08,AE,MAXIS-08-408-001,18,LOSS OF TASTE,,LOSS OF TASTE,28626.0,AGEUSIA,12607.0,SENSORY ABNORMALITIES NEC,2536.0,,1115.0,NERVOUS SYSTEM DISORDERS,948.0,NERVOUS SYSTEM DISORDERS,948.0,N,DOSE NOT CHANGED,NOT RELATED,NOT RECOVERED/NOT RESOLVED,,,,1,,,999,2009-06-15,2009-06-15,,,,,MILD
MAXIS-08,AE,MAXIS-08-408-001,1,DISCOMFORT AT PORT-A-CATH SITE,,,,INFUSION SITE DISCOMFORT,2091246.0,INFUSION SITE REACTIONS,1982313.0,,1297.0,GENERAL DISORDERS AND ADMINISTRATION SITE CONDITIONS,963.0,GENERAL DISORDERS AND ADMINISTRATION SITE CONDITIONS,963.0,N,DOSE NOT CHANGED,NOT RELATED,RECOVERED/RESOLVED,,,,1,,,999,2009-06-26,2009-06-26,2009-07-01,,,,MILD
MAXIS-08,AE,MAXIS-08-408-001,2,INCREASED AGITATION,,INCREASED AGITATION,24902.0,AGITATION,2998.0,ANXIETY SYMPTOMS,1529.0,,1027.0,PSYCHIATRIC DISORDERS,969.0,PSYCHIATRIC DISORDERS,969.0,N,DOSE NOT CHANGED,NOT RELATED,NOT RECOVERED/NOT RESOLVED,,,,2,,,999,2009-08-28,2009-08-28,,,,,MODERATE
MAXIS-08,AE,MAXIS-08-408-001,3,ANXIETY,,,,ANXIETY,14721.0,ANXIETY SYMPTOMS,1529.0,,1027.0,PSYCHIATRIC DISORDERS,969.0,PSYCHIATRIC DISORDERS,969.0,N,DOSE NOT CHANGED,NOT RELATED,NOT RECOVERED/NOT RESOLVED,,,,2,,,999,2009-08-24,2009-08-24,,,,,MODERATE
MAXIS-08,AE,MAXIS-08-408-001,4,1-2+ BILATERAL EDEMA,,EDEMA,20978.0,OEDEMA,16656.0,OEDEMA NEC,2236.0,,1195.0,GENERAL DISORDERS AND ADMINISTRATION SITE CONDITIONS,963.0,GENERAL DISORDERS AND ADMINISTRATION SITE CONDITIONS,963.0,N,DOSE NOT CHANGED,POSSIBLY RELATED,NOT RECOVERED/NOT RESOLVED,,,,2,,,999,2009-08-01,2009-08-01,,,,,MODERATE
MAXIS-08,AE,MAXIS-08-408-001,5,SHORTNESS OF BREATH,,SHORTNESS OF BREATH,22271.0,DYSPNOEA,15703.0,BREATHING ABNORMALITIES,2130.0,,1260.0,"RESPIRATORY, THORACIC AND MEDIASTINAL DISORDERS",951.0,"RESPIRATORY, THORACIC AND MEDIASTINAL DISORDERS",951.0,N,DOSE NOT CHANGED,NOT RELATED,RECOVERED/RESOLVED,,,,1,,,999,2009-07-08,2009-07-08,2009-07-08,,,,MILD
MAXIS-08,AE,MAXIS-08-408-001,6,SWELLING IN ANKLES,,ANKLES SWELLING,39953.0,JOINT SWELLING,6174.0,JOINT RELATED SIGNS AND SYMPTOMS,2418.0,,970.0,MUSCULOSKELETAL AND CONNECTIVE TISSUE DISORDERS,955.0,MUSCULOSKELETAL AND CONNECTIVE TISSUE DISORDERS,955.0,N,DOSE NOT CHANGED,UNLIKELY RELATED,RECOVERED/RESOLVED,,,,1,,,999,200907,200907,2009-07-09,,,,MILD
MAXIS-08,AE,MAXIS-08-408-001,7,LEFT SIDED NON-CARDIAC CHEST PAIN,,CHEST PAIN (NON-CARDIAC),38242.0,NON-CARDIAC CHEST PAIN,18599.0,PAIN AND DISCOMFORT NEC,2241.0,,1195.0,GENERAL DISORDERS AND ADMINISTRATION SITE CONDITIONS,963.0,GENERAL DISORDERS AND ADMINISTRATION SITE CONDITIONS,963.0,N,DOSE NOT CHANGED,NOT RELATED,NOT RECOVERED/NOT RESOLVED,,,,1,,,999,2009-07-24,2009-07-24,,,,,MILD
MAXIS-08,AE,MAXIS-08-408-001,8,RIGHT SIDED CHEST PAIN,,,,CHEST PAIN,12589.0,PAIN AND DISCOMFORT NEC,2241.0,,1195.0,GENERAL DISORDERS AND ADMINISTRATION SITE CONDITIONS,963.0,GENERAL DISORDERS AND ADMINISTRATION SITE CONDITIONS,963.0,Y,DOSE NOT CHANGED,NOT RELATED,RECOVERED/RESOLVED WITH SEQUELAE,,,,3,,,999,2009-08-14,2009-08-14,2009-08-22,,,,SEVERE
MAXIS-08,AE,MAXIS-08-408-001,9,ABDOMINAL PAIN,,,,ABDOMINAL PAIN,16293.0,GASTROINTESTINAL AND ABDOMINAL PAINS (EXCL ORAL AND THROAT),1942.0,,1137.0,GASTROINTESTINAL DISORDERS,952.0,GASTROINTESTINAL DISORDERS,952.0,Y,DRUG INTERRUPTED,NOT RELATED,RECOVERED/RESOLVED WITH SEQUELAE,,,,2,,,999,2009-08-05,2009-08-05,2009-08-07,,,,MODERATE
MAXIS-08,AE,MAXIS-08-408-001,10,RIGHT UPPER QUADRANT PAIN,,RIGHT UPPER QUADRANT PAIN,38661.0,ABDOMINAL PAIN UPPER,2987.0,GASTROINTESTINAL AND ABDOMINAL PAINS (EXCL ORAL AND THROAT),1942.0,,1137.0,GASTROINTESTINAL DISORDERS,952.0,GASTROINTESTINAL DISORDERS,952.0,Y,DRUG INTERRUPTED,NOT RELATED,RECOVERED/RESOLVED,,,,3,,,999,2009-08-05,2009-08-05,2009-08-07,,,,SEVERE
MAXIS-08,AE,MAXIS-08-408-001,11,RIGHT SIDED CHEST PAIN,,,,CHEST PAIN,12589.0,PAIN AND DISCOMFORT NEC,2241.0,,1195.0,GENERAL DISORDERS AND ADMINISTRATION SITE CONDITIONS,963.0,GENERAL DISORDERS AND ADMINISTRATION SITE CONDITIONS,963.0,Y,DRUG INTERRUPTED,NOT RELATED,RECOVERED/RESOLVED WITH SEQUELAE,,,,3,,,999,2009-08-05,2009-08-05,2009-08-07,,,,SEVERE
MAXIS-08,AE,MAXIS-08-408-001,12,RIGHT CHEST PAIN,,,,CHEST PAIN,12589.0,PAIN AND DISCOMFORT NEC,2241.0,,1195.0,GENERAL DISORDERS AND ADMINISTRATION SITE CONDITIONS,963.0,GENERAL DISORDERS AND ADMINISTRATION SITE CONDITIONS,963.0,Y,DOSE NOT CHANGED,NOT RELATED,RECOVERED/RESOLVED,,,,3,,,999,2009-07-21,2009-07-21,2009-07-23,,,,SEVERE
MAXIS-08,AE,MAXIS-08-408-001,13,ABDOMINAL PAIN,,,,ABDOMINAL PAIN,16293.0,GASTROINTESTINAL AND ABDOMINAL PAINS (EXCL ORAL AND THROAT),1942.0,,1137.0,GASTROINTESTINAL DISORDERS,952.0,GASTROINTESTINAL DISORDERS,952.0,Y,DOSE NOT CHANGED,NOT RELATED,RECOVERED/RESOLVED,,,,2,,,999,2009-07-21,2009-07-21,2009-07-23,,,,MODERATE
MAXIS-08,AE,MAXIS-08-408-001,14,RIGHT SHOULDER PAIN,,SHOULDER PAIN,679490.0,MUSCULOSKELETAL PAIN,4910.0,MUSCULOSKELETAL AND CONNECTIVE TISSUE PAIN AND DISCOMFORT,1982317.0,,988.0,MUSCULOSKELETAL AND CONNECTIVE TISSUE DISORDERS,955.0,MUSCULOSKELETAL AND CONNECTIVE TISSUE DISORDERS,955.0,Y,DOSE NOT CHANGED,NOT RELATED,RECOVERED/RESOLVED,,,,3,,,999,2009-07-21,2009-07-21,2009-07-23,,,,SEVERE
MAXIS-08,AE,MAXIS-08-408-001,15,ABDOMINAL PAIN,,,,ABDOMINAL PAIN,16293.0,GASTROINTESTINAL AND ABDOMINAL PAINS (EXCL ORAL AND THROAT),1942.0,,1137.0,GASTROINTESTINAL DISORDERS,952.0,GASTROINTESTINAL DISORDERS,952.0,Y,DOSE NOT CHANGED,NOT RELATED,RECOVERED/RESOLVED WITH SEQUELAE,,,,3,,,999,2009-08-23,2009-08-23,2009-09-02,,,,SEVERE
MAXIS-08,AE,MAXIS-08-408-001,16,CHEST PAIN,,,,CHEST PAIN,12589.0,PAIN AND DISCOMFORT NEC,2241.0,,1195.0,GENERAL DISORDERS AND ADMINISTRATION SITE CONDITIONS,963.0,GENERAL DISORDERS AND ADMINISTRATION SITE CONDITIONS,963.0,Y,DOSE NOT CHANGED,NOT RELATED,RECOVERED/RESOLVED WITH SEQUELAE,,,,3,,,999,2009-08-23,2009-08-23,2009-09-02,,,,SEVERE
MAXIS-08,AE,MAXIS-08-408-001,17,HANDSHAKING,,SHAKING OF HANDS,28511.0,TREMOR,12672.0,TREMOR (EXCL CONGENITAL),1436.0,,1114.0,NERVOUS SYSTEM DISORDERS,948.0,NERVOUS SYSTEM DISORDERS,948.0,N,DOSE NOT CHANGED,POSSIBLY RELATED,RECOVERED/RESOLVED,,,,1,,,999,2009-07-08,2009-07-08,2009-08-01,,,,MILD
MAXIS-08,AE,MAXIS-08-408-001,18,RIGHT LEG PAIN,,LEG PAIN,37161.0,PAIN IN EXTREMITY,15624.0,MUSCULOSKELETAL AND CONNECTIVE TISSUE PAIN AND DISCOMFORT,1982317.0,,988.0,MUSCULOSKELETAL AND CONNECTIVE TISSUE DISORDERS,955.0,MUSCULOSKELETAL AND CONNECTIVE TISSUE DISORDERS,955.0,Y,DOSE NOT CHANGED,NOT RELATED,RECOVERED/RESOLVED,,,,3,,,999,2009-07-21,2009-07-21,2009-07-23,,,,SEVERE
MAXIS-08,AE,MAXIS-08-408-001,19,SWELLING IN ANKLES,Ankles swelling,,,Joint swelling,,,,,,,,,,N,DOSE NOT CHANGED,UNLIKELY RELATED,RECOVERED/RESOLVED,,,,1,,,999,200907,200907,2009-07-09,,,,MILD
MAXIS-08,AE,MAXIS-08-408-001,20,SHORTNESS OF BREATH,,,,Dyspnoea,,,,,,,,,,N,DOSE NOT CHANGED,NOT RELATED,RECOVERED/RESOLVED,,,,1,,,999,2009-07-08,2009-07-08,2009-07-08,,,,MILD
MAXIS-08,AE,MAXIS-08-408-001,21,RIGHT UPPER QUADRANT PAIN,,,,Abdominal pain upper,,,,,,,,,,Y,DRUG INTERRUPTED,NOT RELATED,RECOVERED/RESOLVED,,,,3,,,999,2009-08-05,2009-08-05,2009-08-07,,,,SEVERE
MAXIS-08,AE,MAXIS-08-408-001,22,RIGHT SIDED CHEST PAIN,Chest pain,,,Chest pain,,,,,,,,,,Y,DOSE NOT CHANGED,NOT RELATED,RECOVERED/RESOLVED WITH SEQUELAE,,,,3,,,999,2009-08-14,2009-08-14,2009-08-22,,,,SEVERE
MAXIS-08,AE,MAXIS-08-408-001,23,RIGHT SIDED CHEST PAIN,Chest pain,,,Chest pain,,,,,,,,,,Y,DRUG INTERRUPTED,NOT RELATED,RECOVERED/RESOLVED WITH SEQUELAE,,,,3,,,999,2009-08-05,2009-08-05,2009-08-07,,,,SEVERE
MAXIS-08,AE,MAXIS-08-408-001,24,RIGHT SHOULDER PAIN,Shoulder pain,,,Musculoskeletal pain,,,,,,,,,,Y,DOSE NOT CHANGED,NOT RELATED,RECOVERED/RESOLVED,,,,3,,,999,2009-07-21,2009-07-21,2009-07-23,,,,SEVERE
MAXIS-08,AE,MAXIS-08-408-001,25,RIGHT LEG PAIN,Leg pain,,,Pain in extremity,,,,,,,,,,Y,DOSE NOT CHANGED,NOT RELATED,RECOVERED/RESOLVED,,,,3,,,999,2009-07-21,2009-07-21,2009-07-23,,,,SEVERE
MAXIS-08,AE,MAXIS-08-408-001,26,RIGHT CHEST PAIN,Chest pain,,,Chest pain,,,,,,,,,,Y,DOSE NOT CHANGED,NOT RELATED,RECOVERED/RESOLVED,,,,3,,,999,2009-07-21,2009-07-21,2009-07-23,,,,SEVERE
MAXIS-08,AE,MAXIS-08-408-001,27,LEFT SIDED NON-CARDIAC CHEST PAIN,Non-cardiac chest pain,,,Non-cardiac chest pain,,,,,,,,,,N,DOSE NOT CHANGED,NOT RELATED,NOT RECOVERED/NOT RESOLVED,,,,1,,,999,2009-07-24,2009-07-24,,,,,MILD
MAXIS-08,AE,MAXIS-08-408-001,28,COUGH WITH EXPECTORATION,,EXPECTORATION,52141.0,PRODUCTIVE COUGH,7092.0,COUGHING AND ASSOCIATED SYMPTOMS,2132.0,,1260.0,"RESPIRATORY, THORACIC AND MEDIASTINAL DISORDERS",951.0,"RESPIRATORY, THORACIC AND MEDIASTINAL DISORDERS",951.0,N,DOSE NOT CHANGED,NOT RELATED,RECOVERED/RESOLVED,,,,1,,,999,2009-07-08,2009-07-08,2009-07-08,,,,MILD
MAXIS-08,AE,MAXIS-08-408-001,29,INSOMNIA,,,,Insomnia,,,,,,,,,,N,DOSE NOT CHANGED,NOT RELATED,NOT RECOVERED/NOT RESOLVED,,,,1,,,999,2009-07-23,2009-07-23,,,,,MILD
MAXIS-08,AE,MAXIS-08-408-001,30,INSOMNIA,,,,INSOMNIA,12685.0,DISTURBANCES IN INITIATING AND MAINTAINING SLEEP,2759.0,,1275.0,PSYCHIATRIC DISORDERS,969.0,PSYCHIATRIC DISORDERS,969.0,N,DOSE NOT CHANGED,NOT RELATED,NOT RECOVERED/NOT RESOLVED,,,,1,,,999,2009-07-23,2009-07-23,,,,,MILD
MAXIS-08,AE,MAXIS-08-408-001,31,DISCOMFORT AT PORT-A-CATH SITE,Catheter site discomfort,,,Catheter site related reaction,,,,,,,,,,N,DOSE NOT CHANGED,NOT RELATED,RECOVERED/RESOLVED,,,,1,,,999,2009-06-26,2009-06-26,2009-07-01,,,,MILD
MAXIS-08,AE,MAXIS-08-408-001,32,COUGH WITH EXPECTORATION,Expectoration,,,Productive cough,,,,,,,,,,N,DOSE NOT CHANGED,NOT RELATED,RECOVERED/RESOLVED,,,,1,,,999,2009-07-08,2009-07-08,2009-07-08,,,,MILD
MAXIS-08,AE,MAXIS-08-408-001,33,CHEST PAIN,,,,Chest pain,,,,,,,,,,Y,DOSE NOT CHANGED,NOT RELATED,RECOVERED/RESOLVED WITH SEQUELAE,,,,3,,,999,2009-08-23,2009-08-23,2009-09-02,,,,SEVERE
MAXIS-08,AE,MAXIS-08-408-001,34,ANXIETY,,,,Anxiety,,,,,,,,,,N,DOSE NOT CHANGED,NOT RELATED,NOT RECOVERED/NOT RESOLVED,,,,2,,,999,2009-08-24,2009-08-24,,,,,MODERATE
MAXIS-08,AE,MAXIS-08-408-001,35,ABDOMINAL PAIN,,,,Abdominal pain,,,,,,,,,,Y,DOSE NOT CHANGED,NOT RELATED,RECOVERED/RESOLVED WITH SEQUELAE,,,,3,,,999,2009-08-23,2009-08-23,2009-09-02,,,,SEVERE
MAXIS-08,AE,MAXIS-08-408-001,36,ABDOMINAL PAIN,,,,Abdominal pain,,,,,,,,,,Y,DRUG INTERRUPTED,NOT RELATED,RECOVERED/RESOLVED WITH SEQUELAE,,,,2,,,999,2009-08-05,2009-08-05,2009-08-07,,,,MODERATE
MAXIS-08,AE,MAXIS-08-408-001,37,ABDOMINAL PAIN,,,,Abdominal pain,,,,,,,,,,Y,DOSE NOT CHANGED,NOT RELATED,RECOVERED/RESOLVED,,,,2,,,999,2009-07-21,2009-07-21,2009-07-23,,,,MODERATE
MAXIS-08,AE,MAXIS-08-408-001,38,1-2+ BILATERAL EDEMA,Edema,,,Oedema,,,,,,,,,,N,DOSE NOT CHANGED,POSSIBLY RELATED,NOT RECOVERED/NOT RESOLVED,,,,2,,,999,2009-08-01,2009-08-01,,,,,MODERATE
MAXIS-08,AE,MAXIS-08-408-001,39,INCREASED AGITATION,,,,Agitation,,,,,,,,,,N,DOSE NOT CHANGED,NOT RELATED,NOT RECOVERED/NOT RESOLVED,,,,2,,,999,2009-08-28,2009-08-28,,,,,MODERATE
MAXIS-08,AE,MAXIS-08-408-001,40,HANDSHAKING,Shaking of hands,,,Tremor,,,,,,,,,,N,DOSE NOT CHANGED,POSSIBLY RELATED,RECOVERED/RESOLVED,,,,1,,,999,2009-07-08,2009-07-08,2009-08-01,,,,MILD
MAXIS-08,AE,MAXIS-08-408-001,1,ANXIETY,,,,ANXIETY,14721.0,ANXIETY SYMPTOMS,1529.0,,1027.0,PSYCHIATRIC DISORDERS,969.0,PSYCHIATRIC DISORDERS,969.0,N,DOSE NOT CHANGED,UNLIKELY RELATED,RECOVERED/RESOLVED,,,,2,,,999,2009-07-30,2009-07-30,2009-07-30,,,,MODERATE
MAXIS-08,AE,MAXIS-08-408-001,2,DEHYDRATION,,,,Dehydration,,,,,,,,,,N,DOSE NOT CHANGED,NOT RELATED,NOT RECOVERED/NOT RESOLVED,,,,1,,,999,2009-07-16,2009-07-16,,,,,MILD
MAXIS-08,AE,MAXIS-08-408-001,3,FINGER & TOES PERIPHERAL NEUROPATHY,,,,NEUROPATHY PERIPHERAL,17827.0,PERIPHERAL NEUROPATHIES NEC,2545.0,,1143.0,NERVOUS SYSTEM DISORDERS,948.0,NERVOUS SYSTEM DISORDERS,948.0,N,DOSE NOT CHANGED,POSSIBLY RELATED,RECOVERED/RESOLVED,,,,2,,,999,2009-07-30,2009-07-30,2009-08-13,,,,MODERATE
MAXIS-08,AE,MAXIS-08-408-001,4,DIZZINESS,,,,DIZZINESS,13503.0,NEUROLOGICAL SIGNS AND SYMPTOMS NEC,2533.0,,1115.0,NERVOUS SYSTEM DISORDERS,948.0,NERVOUS SYSTEM DISORDERS,948.0,N,DOSE NOT CHANGED,NOT RELATED,RECOVERED/RESOLVED,,,,1,,,999,2009-08-13,2009-08-13,2009-08-20,,,,MILD
MAXIS-08,AE,MAXIS-08-408-001,5,PAIN IN SHOULDER,,SHOULDER PAIN,679490.0,MUSCULOSKELETAL PAIN,4910.0,MUSCULOSKELETAL AND CONNECTIVE TISSUE PAIN AND DISCOMFORT,1982317.0,,988.0,MUSCULOSKELETAL AND CONNECTIVE TISSUE DISORDERS,955.0,MUSCULOSKELETAL AND CONNECTIVE TISSUE DISORDERS,955.0,N,DOSE NOT CHANGED,NOT RELATED,NOT RECOVERED/NOT RESOLVED,,,,1,,,999,2009-08-20,2009-08-20,,,,,MILD
MAXIS-08,AE,MAXIS-08-408-001,6,INTERMITTENT ABD PAIN,,,,ABDOMINAL PAIN,16293.0,GASTROINTESTINAL AND ABDOMINAL PAINS (EXCL ORAL AND THROAT),1942.0,,1137.0,GASTROINTESTINAL DISORDERS,952.0,GASTROINTESTINAL DISORDERS,952.0,N,DOSE NOT CHANGED,NOT RELATED,NOT RECOVERED/NOT RESOLVED,,,,2,,,999,2009-07-17,2009-07-17,,,,,MODERATE
MAXIS-08,AE,MAXIS-08-408-001,7,STOMACH PAIN (GAS),,STOMACH PAIN,22127.0,ABDOMINAL PAIN UPPER,2987.0,GASTROINTESTINAL AND ABDOMINAL PAINS (EXCL ORAL AND THROAT),1942.0,,1137.0,GASTROINTESTINAL DISORDERS,952.0,GASTROINTESTINAL DISORDERS,952.0,N,DOSE NOT CHANGED,UNLIKELY RELATED,RECOVERED/RESOLVED,,,,1,,,999,2009-08-13,2009-08-13,2009-08-13,,,,MILD
MAXIS-08,AE,MAXIS-08-408-001,8,DIZZINESS,,,,DIZZINESS,13503.0,NEUROLOGICAL SIGNS AND SYMPTOMS NEC,2533.0,,1115.0,NERVOUS SYSTEM DISORDERS,948.0,NERVOUS SYSTEM DISORDERS,948.0,N,DOSE NOT CHANGED,NOT RELATED,RECOVERED/RESOLVED,,,,1,,,999,2009-08-07,2009-08-07,2009-08-07,,,,MILD
MAXIS-08,AE,MAXIS-08-408-001,9,INTERMITTENT STABBING PAIN ON R FLANK,,PAIN FLANK,39090.0,FLANK PAIN,15261.0,MUSCULOSKELETAL AND CONNECTIVE TISSUE PAIN AND DISCOMFORT,1982317.0,,988.0,MUSCULOSKELETAL AND CONNECTIVE TISSUE DISORDERS,955.0,MUSCULOSKELETAL AND CONNECTIVE TISSUE DISORDERS,955.0,N,DOSE NOT CHANGED,NOT RELATED,RECOVERED/RESOLVED,,,,2,,,999,2009-07-10,2009-07-10,2009-07-11,,,,MODERATE
MAXIS-08,AE,MAXIS-08-408-001,10,ANXIETY,,,,Anxiety,,,,,,,,,,N,DOSE NOT CHANGED,UNLIKELY RELATED,RECOVERED/RESOLVED,,,,2,,,999,2009-07-30,2009-07-30,2009-07-30,,,,MODERATE
MAXIS-08,AE,MAXIS-08-408-001,11,DEHYDRATION,,,,DEHYDRATION,3168.0,TOTAL FLUID VOLUME DECREASED,2246.0,,1151.0,METABOLISM AND NUTRITION DISORDERS,957.0,METABOLISM AND NUTRITION DISORDERS,957.0,N,DOSE NOT CHANGED,NOT RELATED,NOT RECOVERED/NOT RESOLVED,,,,1,,,999,2009-07-16,2009-07-16,,,,,MILD
MAXIS-08,AE,MAXIS-08-408-001,12,HEADACHE,,,,HEADACHE,14964.0,HEADACHES NEC,2516.0,,1111.0,NERVOUS SYSTEM DISORDERS,948.0,NERVOUS SYSTEM DISORDERS,948.0,N,DOSE NOT CHANGED,NOT RELATED,RECOVERED/RESOLVED,,,,1,,,999,2009-07-17,2009-07-17,2009-07-18,,,,MILD
MAXIS-08,AE,MAXIS-08-408-001,13,LACK OF APPETITE,,APPETITE LOST,20178.0,DECREASED APPETITE,17546.0,APPETITE DISORDERS,1664.0,,1063.0,METABOLISM AND NUTRITION DISORDERS,957.0,METABOLISM AND NUTRITION DISORDERS,957.0,N,DOSE NOT CHANGED,POSSIBLY RELATED,RECOVERED/RESOLVED,,,,1,,,999,2009-07-23,2009-07-23,2009-08-20,,,,MILD
MAXIS-08,AE,MAXIS-08-408-001,14,PAIN AT PORT-A-CATH SITE,,,,INFUSION SITE PAIN,13152.0,INFUSION SITE REACTIONS,1982313.0,,1297.0,GENERAL DISORDERS AND ADMINISTRATION SITE CONDITIONS,963.0,GENERAL DISORDERS AND ADMINISTRATION SITE CONDITIONS,963.0,N,DOSE NOT CHANGED,POSSIBLY RELATED,RECOVERED/RESOLVED,,,,2,,,999,2009-07-30,2009-07-30,2009-07-30,,,,MODERATE
MAXIS-08,AE,MAXIS-08-408-001,15,PAIN IN LEGS,,PAIN IN LEG,37070.0,PAIN IN EXTREMITY,15624.0,MUSCULOSKELETAL AND CONNECTIVE TISSUE PAIN AND DISCOMFORT,1982317.0,,988.0,MUSCULOSKELETAL AND CONNECTIVE TISSUE DISORDERS,955.0,MUSCULOSKELETAL AND CONNECTIVE TISSUE DISORDERS,955.0,N,DOSE NOT CHANGED,NOT RELATED,NOT RECOVERED/NOT RESOLVED,,,,1,,,999,2009-08-20,2009-08-20,,,,,MILD
MAXIS-08,AE,MAXIS-08-408-001,16,DISCOMFORT AROUND BILIARY TUBE INSERTION SITE,,,,PROCEDURAL PAIN,19870.0,NON-SITE SPECIFIC PROCEDURAL COMPLICATIONS,2298.0,,2071149.0,"INJURY, POISONING AND PROCEDURAL COMPLICATIONS",959.0,"INJURY, POISONING AND PROCEDURAL COMPLICATIONS",959.0,N,DOSE NOT CHANGED,NOT RELATED,NOT RECOVERED/NOT RESOLVED,,,,2,,,999,2009-08-06,2009-08-06,,,,,MODERATE
MAXIS-08,AE,MAXIS-08-408-001,17,PAIN AT PORT-A-CATH SITE,Catheter site pain,,,Catheter site pain,,,,,,,,,,N,DOSE NOT CHANGED,POSSIBLY RELATED,RECOVERED/RESOLVED,,,,2,,,999,2009-07-30,2009-07-30,2009-07-30,,,,MODERATE
MAXIS-08,AE,MAXIS-08-408-001,18,DISCOMFORT AROUND BILIARY TUBE INSERTION SITE,Incision site discomfort,,,Incision site complication,,,,,,,,,,N,DOSE NOT CHANGED,NOT RELATED,NOT RECOVERED/NOT RESOLVED,,,,2,,,999,2009-08-06,2009-08-06,,,,,MODERATE
MAXIS-08,AE,MAXIS-08-408-001,19,DIZZINESS,,,,Dizziness,,,,,,,,,,N,DOSE NOT CHANGED,NOT RELATED,RECOVERED/RESOLVED,,,,1,,,999,2009-08-07,2009-08-07,2009-08-07,,,,MILD
MAXIS-08,AE,MAXIS-08-408-001,20,DIZZINESS,,,,Dizziness,,,,,,,,,,N,DOSE NOT CHANGED,NOT RELATED,RECOVERED/RESOLVED,,,,1,,,999,2009-08-13,2009-08-13,2009-08-20,,,,MILD
MAXIS-08,AE,MAXIS-08-408-001,21,FINGER & TOES PERIPHERAL NEUROPATHY,Peripheral neuropathy NOS,,,Neuropathy peripheral,,,,,,,,,,N,DOSE NOT CHANGED,POSSIBLY RELATED,RECOVERED/RESOLVED,,,,2,,,999,2009-07-30,2009-07-30,2009-08-13,,,,MODERATE
MAXIS-08,AE,MAXIS-08-408-001,22,HEADACHE,,,,Headache,,,,,,,,,,N,DOSE NOT CHANGED,NOT RELATED,RECOVERED/RESOLVED,,,,1,,,999,2009-07-17,2009-07-17,2009-07-18,,,,MILD
MAXIS-08,AE,MAXIS-08-408-001,23,INTERMITTENT ABD PAIN,Abdominal pain,,,Abdominal pain,,,,,,,,,,N,DOSE NOT CHANGED,NOT RELATED,NOT RECOVERED/NOT RESOLVED,,,,2,,,999,2009-07-17,2009-07-17,,,,,MODERATE
MAXIS-08,AE,MAXIS-08-408-001,24,INTERMITTENT STABBING PAIN ON R FLANK,Pain flank,,,Flank pain,,,,,,,,,,N,DOSE NOT CHANGED,NOT RELATED,RECOVERED/RESOLVED,,,,2,,,999,2009-07-10,2009-07-10,2009-07-11,,,,MODERATE
MAXIS-08,AE,MAXIS-08-408-001,25,LACK OF APPETITE,Decreased appetite,,,Decreased appetite,,,,,,,,,,N,DOSE NOT CHANGED,POSSIBLY RELATED,RECOVERED/RESOLVED,,,,1,,,999,2009-07-23,2009-07-23,2009-08-20,,,,MILD
MAXIS-08,AE,MAXIS-08-408-001,26,PAIN IN BACK,,PAIN BACK,39102.0,BACK PAIN,3060.0,MUSCULOSKELETAL AND CONNECTIVE TISSUE PAIN AND DISCOMFORT,1982317.0,,988.0,MUSCULOSKELETAL AND CONNECTIVE TISSUE DISORDERS,955.0,MUSCULOSKELETAL AND CONNECTIVE TISSUE DISORDERS,955.0,N,DOSE NOT CHANGED,NOT RELATED,NOT RECOVERED/NOT RESOLVED,,,,1,,,999,2009-08-20,2009-08-20,,,,,MILD
MAXIS-08,AE,MAXIS-08-408-001,27,PAIN IN BACK,Back pain,,,Back pain,,,,,,,,,,N,DOSE NOT CHANGED,NOT RELATED,NOT RECOVERED/NOT RESOLVED,,,,1,,,999,2009-08-20,2009-08-20,,,,,MILD
MAXIS-08,AE,MAXIS-08-408-001,28,PAIN IN LEGS,Leg pain,,,Pain in extremity,,,,,,,,,,N,DOSE NOT CHANGED,NOT RELATED,NOT RECOVERED/NOT RESOLVED,,,,1,,,999,2009-08-20,2009-08-20,,,,,MILD
MAXIS-08,AE,MAXIS-08-408-001,29,PAIN IN SHOULDER,Shoulder pain,,,Musculoskeletal pain,,,,,,,,,,N,DOSE NOT CHANGED,NOT RELATED,NOT RECOVERED/NOT RESOLVED,,,,1,,,999,2009-08-20,2009-08-20,,,,,MILD
MAXIS-08,AE,MAXIS-08-408-001,30,STOMACH PAIN (GAS),Stomach pain,,,Abdominal pain upper,,,,,,,,,,N,DOSE NOT CHANGED,UNLIKELY RELATED,RECOVERED/RESOLVED,,,,1,,,999,2009-08-13,2009-08-13,2009-08-13,,,,MILD
MAXIS-08,AE,MAXIS-08-408-001,1,INTERMITTENT FATIGUE,,,,FATIGUE,3246.0,ASTHENIC CONDITIONS,2228.0,,1195.0,GENERAL DISORDERS AND ADMINISTRATION SITE CONDITIONS,963.0,GENERAL DISORDERS AND ADMINISTRATION SITE CONDITIONS,963.0,N,DOSE NOT CHANGED,NOT RELATED,RECOVERED/RESOLVED,,,,2,,,999,2009-08-03,2009-08-03,2009-09-05,,,,MODERATE
MAXIS-08,AE,MAXIS-08-408-001,2,ANOREXIA,,ANOREXIA,2111867.0,DECREASED APPETITE,17546.0,APPETITE DISORDERS,1664.0,,1063.0,METABOLISM AND NUTRITION DISORDERS,957.0,METABOLISM AND NUTRITION DISORDERS,957.0,N,DOSE NOT CHANGED,NOT RELATED,RECOVERED/RESOLVED,,,,1,,,999,2009-08-03,2009-08-03,2009-08-21,,,,MILD
MAXIS-08,AE,MAXIS-08-408-001,3,INTERMITTENT CONSTIPATION,,,,CONSTIPATION,3143.0,GASTROINTESTINAL ATONIC AND HYPOMOTILITY DISORDERS NEC,1346.0,,1228.0,GASTROINTESTINAL DISORDERS,952.0,GASTROINTESTINAL DISORDERS,952.0,N,DOSE NOT CHANGED,POSSIBLY RELATED,RECOVERED/RESOLVED,,,,2,,,999,2009-08-03,2009-08-03,2009-09-05,,,,MODERATE
MAXIS-08,AE,MAXIS-08-408-001,4,WEAKNESS,,WEAKNESS,28093.0,ASTHENIA,3052.0,ASTHENIC CONDITIONS,2228.0,,1195.0,GENERAL DISORDERS AND ADMINISTRATION SITE CONDITIONS,963.0,GENERAL DISORDERS AND ADMINISTRATION SITE CONDITIONS,963.0,N,DOSE NOT CHANGED,NOT RELATED,RECOVERED/RESOLVED,,,,3,,,999,2009-08-17,2009-08-17,2009-09-05,,,,SEVERE
MAXIS-08,AE,MAXIS-08-408-001,5,HYPERCALCEMIA,,HYPERCALCEMIA,39338.0,HYPERCALCAEMIA,3329.0,CALCIUM METABOLISM DISORDERS,1852.0,,1079.0,METABOLISM AND NUTRITION DISORDERS,957.0,METABOLISM AND NUTRITION DISORDERS,957.0,N,DOSE NOT CHANGED,POSSIBLY RELATED,RECOVERED/RESOLVED,,,,2,,,999,2009-08-19,2009-08-19,2009-08-20,,,,MODERATE
MAXIS-08,AE,MAXIS-08-408-001,6,LEG EDEMA,,LEG EDEMA,56613.0,OEDEMA PERIPHERAL,3496.0,OEDEMA NEC,2236.0,,1195.0,GENERAL DISORDERS AND ADMINISTRATION SITE CONDITIONS,963.0,GENERAL DISORDERS AND ADMINISTRATION SITE CONDITIONS,963.0,N,DOSE NOT CHANGED,UNLIKELY RELATED,RECOVERED/RESOLVED,,,,1,,,999,2009-08-21,2009-08-21,2009-09-05,,,,MILD
MAXIS-08,AE,MAXIS-08-408-001,7,HYPONATREMIA,,HYPONATREMIA,39232.0,HYPONATRAEMIA,3360.0,SODIUM IMBALANCE,2245.0,,1151.0,METABOLISM AND NUTRITION DISORDERS,957.0,METABOLISM AND NUTRITION DISORDERS,957.0,N,DOSE NOT CHANGED,NOT RELATED,RECOVERED/RESOLVED,,,,3,,,999,2009-08-04,2009-08-04,2009-08-06,,,,SEVERE
MAXIS-08,AE,MAXIS-08-408-001,8,LOSS OF APPETITE,,APPETITE LOST,20178.0,DECREASED APPETITE,17546.0,APPETITE DISORDERS,1664.0,,1063.0,METABOLISM AND NUTRITION DISORDERS,957.0,METABOLISM AND NUTRITION DISORDERS,957.0,N,DOSE NOT CHANGED,POSSIBLY RELATED,RECOVERED/RESOLVED,,,,1,,,999,2009-07-27,2009-07-27,2009-08-10,,,,MILD
MAXIS-08,AE,MAXIS-08-408-001,9,RIGHT SHOULDER PAIN,,SHOULDER PAIN,679490.0,MUSCULOSKELETAL PAIN,4910.0,MUSCULOSKELETAL AND CONNECTIVE TISSUE PAIN AND DISCOMFORT,1982317.0,,988.0,MUSCULOSKELETAL AND CONNECTIVE TISSUE DISORDERS,955.0,MUSCULOSKELETAL AND CONNECTIVE TISSUE DISORDERS,955.0,N,DOSE NOT CHANGED,NOT RELATED,RECOVERED/RESOLVED,,,,1,,,999,2009-08-03,2009-08-03,2009-09-05,,,,MILD
MAXIS-08,AE,MAXIS-08-408-001,10,INTERMITTENT WEAKNESS,,WEAKNESS,28093.0,ASTHENIA,3052.0,ASTHENIC CONDITIONS,2228.0,,1195.0,GENERAL DISORDERS AND ADMINISTRATION SITE CONDITIONS,963.0,GENERAL DISORDERS AND ADMINISTRATION SITE CONDITIONS,963.0,N,DOSE NOT CHANGED,NOT RELATED,RECOVERED/RESOLVED,,,,1,,,999,2009-08-03,2009-08-03,2009-08-17,,,,MILD
MAXIS-08,AE,MAXIS-08-408-001,11,ORTHOSTATIC HYPOTENSION,,,,ORTHOSTATIC HYPOTENSION,12567.0,VASCULAR HYPOTENSIVE DISORDERS,2939.0,,1119.0,VASCULAR DISORDERS,962.0,VASCULAR DISORDERS,962.0,N,DOSE NOT CHANGED,POSSIBLY RELATED,RECOVERED/RESOLVED,,,,2,,,999,2009-08-18,2009-08-18,2009-08-20,,,,MODERATE
MAXIS-08,AE,MAXIS-08-408-001,12,HYPONATREMIA,,HYPONATREMIA,39232.0,HYPONATRAEMIA,3360.0,SODIUM IMBALANCE,2245.0,,1151.0,METABOLISM AND NUTRITION DISORDERS,957.0,METABOLISM AND NUTRITION DISORDERS,957.0,N,DOSE NOT CHANGED,NOT RELATED,RECOVERED/RESOLVED,,,,3,,,999,2009-08-18,2009-08-18,2009-08-19,,,,SEVERE
MAXIS-08,AE,MAXIS-08-408-001,13,HYPONATREMIA,,HYPONATREMIA,39232.0,HYPONATRAEMIA,3360.0,SODIUM IMBALANCE,2245.0,,1151.0,METABOLISM AND NUTRITION DISORDERS,957.0,METABOLISM AND NUTRITION DISORDERS,957.0,N,DOSE NOT CHANGED,NOT RELATED,RECOVERED/RESOLVED,,,,3,,,999,2009-08-20,2009-08-20,2009-08-21,,,,SEVERE
MAXIS-08,AE,MAXIS-08-408-001,14,HYPONATREMIA,,HYPONATREMIA,39232.0,HYPONATRAEMIA,3360.0,SODIUM IMBALANCE,2245.0,,1151.0,METABOLISM AND NUTRITION DISORDERS,957.0,METABOLISM AND NUTRITION DISORDERS,957.0,N,DOSE NOT CHANGED,NOT RELATED,RECOVERED/RESOLVED,,,,3,,,999,2009-08-24,2009-08-24,2009-08-25,,,,SEVERE
MAXIS-08,AE,MAXIS-08-408-001,15,HYPERBILIRUBINEMIA,,HYPERBILIRUBINEMIA,39339.0,HYPERBILIRUBINAEMIA,5156.0,CHOLESTASIS AND JAUNDICE,1666.0,,1029.0,HEPATOBILIARY DISORDERS,967.0,HEPATOBILIARY DISORDERS,967.0,N,DOSE NOT CHANGED,POSSIBLY RELATED,RECOVERED/RESOLVED,,,,2,,,999,2009-08-18,2009-08-18,2009-08-19,,,,MODERATE
MAXIS-08,AE,MAXIS-08-408-001,16,HYPERBILIRUBINEMIA,,HYPERBILIRUBINEMIA,39339.0,HYPERBILIRUBINAEMIA,5156.0,CHOLESTASIS AND JAUNDICE,1666.0,,1029.0,HEPATOBILIARY DISORDERS,967.0,HEPATOBILIARY DISORDERS,967.0,N,DOSE NOT CHANGED,POSSIBLY RELATED,RECOVERED/RESOLVED,,,,2,,,999,2009-08-21,2009-08-21,2009-09-05,,,,MODERATE
MAXIS-08,AE,MAXIS-08-408-001,17,ELEVATED AST,,AST INCREASED,20125.0,ASPARTATE AMINOTRANSFERASE INCREASED,3048.0,LIVER FUNCTION ANALYSES,2783.0,,1183.0,INVESTIGATIONS,944.0,INVESTIGATIONS,944.0,N,DOSE NOT CHANGED,POSSIBLY RELATED,RECOVERED/RESOLVED,,,,2,,,999,2009-08-03,2009-08-03,2009-08-11,,,,MODERATE
MAXIS-08,AE,MAXIS-08-408-001,18,ELEVATED AST,,AST INCREASED,20125.0,ASPARTATE AMINOTRANSFERASE INCREASED,3048.0,LIVER FUNCTION ANALYSES,2783.0,,1183.0,INVESTIGATIONS,944.0,INVESTIGATIONS,944.0,N,DOSE NOT CHANGED,POSSIBLY RELATED,RECOVERED/RESOLVED,,,,2,,,999,2009-08-18,2009-08-18,2009-08-24,,,,MODERATE
MAXIS-08,AE,MAXIS-08-408-001,19,PEDAL EDEMA,,PEDAL EDEMA,56575.0,OEDEMA PERIPHERAL,3496.0,OEDEMA NEC,2236.0,,1195.0,GENERAL DISORDERS AND ADMINISTRATION SITE CONDITIONS,963.0,GENERAL DISORDERS AND ADMINISTRATION SITE CONDITIONS,963.0,N,DOSE NOT CHANGED,UNLIKELY RELATED,RECOVERED/RESOLVED,,,,1,,,999,2009-08-21,2009-08-21,2009-09-05,,,,MILD
MAXIS-08,AE,MAXIS-08-408-001,20,NEUROPATHY,,NEUROPATHY,1414594.0,NEUROPATHY PERIPHERAL,17827.0,PERIPHERAL NEUROPATHIES NEC,2545.0,,1143.0,NERVOUS SYSTEM DISORDERS,948.0,NERVOUS SYSTEM DISORDERS,948.0,N,DOSE NOT CHANGED,POSSIBLY RELATED,RECOVERED/RESOLVED,,,,3,,,999,2009-08-18,2009-08-18,2009-09-05,,,,SEVERE
MAXIS-08,AE,MAXIS-08-408-001,21,HYPONATREMIA,,HYPONATREMIA,39232.0,HYPONATRAEMIA,3360.0,SODIUM IMBALANCE,2245.0,,1151.0,METABOLISM AND NUTRITION DISORDERS,957.0,METABOLISM AND NUTRITION DISORDERS,957.0,N,DOSE NOT CHANGED,NOT RELATED,RECOVERED/RESOLVED,,,,1,,,999,2009-08-25,2009-08-25,2009-09-05,,,,MILD
MAXIS-08,AE,MAXIS-08-408-001,22,ABDOMINAL PAIN,,,,ABDOMINAL PAIN,16293.0,GASTROINTESTINAL AND ABDOMINAL PAINS (EXCL ORAL AND THROAT),1942.0,,1137.0,GASTROINTESTINAL DISORDERS,952.0,GASTROINTESTINAL DISORDERS,952.0,N,DOSE NOT CHANGED,NOT RELATED,RECOVERED/RESOLVED,,,,2,,,999,2009-07-27,2009-07-27,2009-08-03,,,,MODERATE
MAXIS-08,AE,MAXIS-08-408-001,23,ELEVATED AST,,AST INCREASED,20125.0,ASPARTATE AMINOTRANSFERASE INCREASED,3048.0,LIVER FUNCTION ANALYSES,2783.0,,1183.0,INVESTIGATIONS,944.0,INVESTIGATIONS,944.0,N,DOSE NOT CHANGED,UNLIKELY RELATED,RECOVERED/RESOLVED,,,,3,,,999,2009-08-24,2009-08-24,2009-09-05,,,,SEVERE
MAXIS-08,AE,MAXIS-08-408-001,24,DEATH DUE TO DISEASE PROGRESSION,,,,DEATH,16401.0,DEATH AND SUDDEN DEATH,2921.0,,1288.0,GENERAL DISORDERS AND ADMINISTRATION SITE CONDITIONS,963.0,GENERAL DISORDERS AND ADMINISTRATION SITE CONDITIONS,963.0,Y,DOSE NOT CHANGED,NOT RELATED,FATAL,,,,5,,,999,2009-09-05,2009-09-05,2009-09-05,,,,FATAL
MAXIS-08,AE,MAXIS-08-408-001,25,ANOREXIA,,,,Decreased appetite,,,,,,,,,,N,DOSE NOT CHANGED,NOT RELATED,RECOVERED/RESOLVED,,,,1,,,999,2009-08-03,2009-08-03,2009-08-21,,,,MILD
MAXIS-08,AE,MAXIS-08-408-001,26,ABDOMINAL PAIN,,,,Abdominal pain,,,,,,,,,,N,DOSE NOT CHANGED,NOT RELATED,RECOVERED/RESOLVED,,,,2,,,999,2009-07-27,2009-07-27,2009-08-03,,,,MODERATE
MAXIS-08,AE,MAXIS-08-408-001,27,RIGHT SHOULDER PAIN,Shoulder pain,,,Musculoskeletal pain,,,,,,,,,,N,DOSE NOT CHANGED,NOT RELATED,RECOVERED/RESOLVED,,,,1,,,999,2009-08-03,2009-08-03,2009-09-05,,,,MILD
MAXIS-08,AE,MAXIS-08-408-001,28,PEDAL EDEMA,,,,Oedema peripheral,,,,,,,,,,N,DOSE NOT CHANGED,UNLIKELY RELATED,RECOVERED/RESOLVED,,,,1,,,999,2009-08-21,2009-08-21,2009-09-05,,,,MILD
MAXIS-08,AE,MAXIS-08-408-001,29,ORTHOSTATIC HYPOTENSION,,,,Orthostatic hypotension,,,,,,,,,,N,DOSE NOT CHANGED,POSSIBLY RELATED,RECOVERED/RESOLVED,,,,2,,,999,2009-08-18,2009-08-18,2009-08-20,,,,MODERATE
MAXIS-08,AE,MAXIS-08-408-001,30,NEUROPATHY,,,,Neuropathy peripheral,,,,,,,,,,N,DOSE NOT CHANGED,POSSIBLY RELATED,RECOVERED/RESOLVED,,,,3,,,999,2009-08-18,2009-08-18,2009-09-05,,,,SEVERE
MAXIS-08,AE,MAXIS-08-408-001,31,LOSS OF APPETITE,Appetite lost,,,Decreased appetite,,,,,,,,,,N,DOSE NOT CHANGED,POSSIBLY RELATED,RECOVERED/RESOLVED,,,,1,,,999,2009-07-27,2009-07-27,2009-08-10,,,,MILD
MAXIS-08,AE,MAXIS-08-408-001,32,LEG EDEMA,,,,Oedema peripheral,,,,,,,,,,N,DOSE NOT CHANGED,UNLIKELY RELATED,RECOVERED/RESOLVED,,,,1,,,999,2009-08-21,2009-08-21,2009-09-05,,,,MILD
MAXIS-08,AE,MAXIS-08-408-001,33,INTERMITTENT WEAKNESS,Weakness,,,Asthenia,,,,,,,,,,N,DOSE NOT CHANGED,NOT RELATED,RECOVERED/RESOLVED,,,,1,,,999,2009-08-03,2009-08-03,2009-08-17,,,,MILD
MAXIS-08,AE,MAXIS-08-408-001,34,INTERMITTENT FATIGUE,Fatigue,,,Fatigue,,,,,,,,,,N,DOSE NOT CHANGED,NOT RELATED,RECOVERED/RESOLVED,,,,2,,,999,2009-08-03,2009-08-03,2009-09-05,,,,MODERATE
MAXIS-08,AE,MAXIS-08-408-001,35,INTERMITTENT CONSTIPATION,Constipation,,,Constipation,,,,,,,,,,N,DOSE NOT CHANGED,POSSIBLY RELATED,RECOVERED/RESOLVED,,,,2,,,999,2009-08-03,2009-08-03,2009-09-05,,,,MODERATE
MAXIS-08,AE,MAXIS-08-408-001,36,HYPONATREMIA,,,,Hyponatraemia,,,,,,,,,,N,DOSE NOT CHANGED,NOT RELATED,RECOVERED/RESOLVED,,,,1,,,999,2009-08-25,2009-08-25,2009-09-05,,,,MILD
MAXIS-08,AE,MAXIS-08-408-001,37,WEAKNESS,,,,Asthenia,,,,,,,,,,N,DOSE NOT CHANGED,NOT RELATED,RECOVERED/RESOLVED,,,,3,,,999,2009-08-17,2009-08-17,2009-09-05,,,,SEVERE
MAXIS-08,AE,MAXIS-08-408-001,38,HYPONATREMIA,,,,Hyponatraemia,,,,,,,,,,N,DOSE NOT CHANGED,NOT RELATED,RECOVERED/RESOLVED,,,,3,,,999,2009-08-20,2009-08-20,2009-08-21,,,,SEVERE
MAXIS-08,AE,MAXIS-08-408-001,39,HYPONATREMIA,,,,Hyponatraemia,,,,,,,,,,N,DOSE NOT CHANGED,NOT RELATED,RECOVERED/RESOLVED,,,,3,,,999,2009-08-18,2009-08-18,2009-08-19,,,,SEVERE
MAXIS-08,AE,MAXIS-08-408-001,40,HYPONATREMIA,,,,Hyponatraemia,,,,,,,,,,N,DOSE NOT CHANGED,NOT RELATED,RECOVERED/RESOLVED,,,,3,,,999,2009-08-04,2009-08-04,2009-08-06,,,,SEVERE
MAXIS-08,AE,MAXIS-08-408-001,41,HYPERCALCEMIA,,,,Hypercalcaemia,,,,,,,,,,N,DOSE NOT CHANGED,POSSIBLY RELATED,RECOVERED/RESOLVED,,,,2,,,999,2009-08-19,2009-08-19,2009-08-20,,,,MODERATE
MAXIS-08,AE,MAXIS-08-408-001,42,HYPERBILIRUBINEMIA,,,,Hyperbilirubinaemia,,,,,,,,,,N,DOSE NOT CHANGED,POSSIBLY RELATED,RECOVERED/RESOLVED,,,,2,,,999,2009-08-21,2009-08-21,2009-09-05,,,,MODERATE
MAXIS-08,AE,MAXIS-08-408-001,43,HYPERBILIRUBINEMIA,,,,Hyperbilirubinaemia,,,,,,,,,,N,DOSE NOT CHANGED,POSSIBLY RELATED,RECOVERED/RESOLVED,,,,2,,,999,2009-08-18,2009-08-18,2009-08-19,,,,MODERATE
MAXIS-08,AE,MAXIS-08-408-001,44,ELEVATED AST,AST increased,,,Aspartate aminotransferase increased,,,,,,,,,,N,DOSE NOT CHANGED,UNLIKELY RELATED,RECOVERED/RESOLVED,,,,3,,,999,2009-08-24,2009-08-24,2009-09-05,,,,SEVERE
MAXIS-08,AE,MAXIS-08-408-001,45,ELEVATED AST,AST increased,,,Aspartate aminotransferase increased,,,,,,,,,,N,DOSE NOT CHANGED,POSSIBLY RELATED,RECOVERED/RESOLVED,,,,2,,,999,2009-08-18,2009-08-18,2009-08-24,,,,MODERATE
MAXIS-08,AE,MAXIS-08-408-001,46,ELEVATED AST,AST increased,,,Aspartate aminotransferase increased,,,,,,,,,,N,DOSE NOT CHANGED,POSSIBLY RELATED,RECOVERED/RESOLVED,,,,2,,,999,2009-08-03,2009-08-03,2009-08-11,,,,MODERATE
MAXIS-08,AE,MAXIS-08-408-001,47,DEATH DUE TO DISEASE PROGRESSION,Disease progression,,,Disease progression,,,,,,,,,,Y,DOSE NOT CHANGED,NOT RELATED,FATAL,,,,5,,,999,2009-09-05,2009-09-05,2009-09-05,,,,FATAL
MAXIS-08,AE,MAXIS-08-408-001,48,HYPONATREMIA,,,,Hyponatraemia,,,,,,,,,,N,DOSE NOT CHANGED,NOT RELATED,RECOVERED/RESOLVED,,,,3,,,999,2009-08-24,2009-08-24,2009-08-25,,,,SEVERE
MAXIS-08,AE,MAXIS-08-408-001,1,CONSTIPATION,,,,CONSTIPATION,3143.0,GASTROINTESTINAL ATONIC AND HYPOMOTILITY DISORDERS NEC,1346.0,,1228.0,GASTROINTESTINAL DISORDERS,952.0,GASTROINTESTINAL DISORDERS,952.0,N,DOSE NOT CHANGED,POSSIBLY RELATED,RECOVERED/RESOLVED,,,,2,,,999,2009-10-08,2009-10-08,2009-10-13,,,,MODERATE
MAXIS-08,AE,MAXIS-08-408-001,2,VAGUE TINGLING NUMBNESS (KNEE TO THIGH),,NUMBNESS OF EXTREMITIES,48356.0,HYPOAESTHESIA,3350.0,SENSORY ABNORMALITIES NEC,2536.0,,1115.0,NERVOUS SYSTEM DISORDERS,948.0,NERVOUS SYSTEM DISORDERS,948.0,N,DOSE NOT CHANGED,POSSIBLY RELATED,NOT RECOVERED/NOT RESOLVED,,,,2,,,999,2009-08-15,2009-08-15,,,,,MODERATE
MAXIS-08,AE,MAXIS-08-408-001,3,PERIPHERAL NEUROPATHY,,,,NEUROPATHY PERIPHERAL,17827.0,PERIPHERAL NEUROPATHIES NEC,2545.0,,1143.0,NERVOUS SYSTEM DISORDERS,948.0,NERVOUS SYSTEM DISORDERS,948.0,N,DOSE NOT CHANGED,POSSIBLY RELATED,NOT RECOVERED/NOT RESOLVED,,,,1,,,999,2009-08-11,2009-08-11,,,,,MILD
MAXIS-08,AE,MAXIS-08-408-001,4,CAR ACCIDENT,,ACCIDENT AUTOMOBILE,19970.0,ROAD TRAFFIC ACCIDENT,6454.0,NON-SITE SPECIFIC INJURIES NEC,1544.0,,1166.0,"INJURY, POISONING AND PROCEDURAL COMPLICATIONS",959.0,"INJURY, POISONING AND PROCEDURAL COMPLICATIONS",959.0,N,DOSE NOT CHANGED,NOT RELATED,RECOVERED/RESOLVED,,,,1,,,999,2009-12-22,2009-12-22,2009-12-22,,,,MILD
MAXIS-08,AE,MAXIS-08-408-001,5,RIGHT FOCAL ECCHYMOTIC LESION MEDIAL 5TH TOE,,,,ECCHYMOSIS,3204.0,PURPURA AND RELATED CONDITIONS,2455.0,,1194.0,SKIN AND SUBCUTANEOUS TISSUE DISORDERS,954.0,SKIN AND SUBCUTANEOUS TISSUE DISORDERS,954.0,N,DOSE NOT CHANGED,NOT RELATED,RECOVERED/RESOLVED,,,,1,,,999,2009-11-03,2009-11-03,2009-11-10,,,,MILD
MAXIS-08,AE,MAXIS-08-408-001,6,VAGUE SKIN RASH (BACK OF HEAD),,SKIN RASH,28201.0,RASH,17007.0,"RASHES, ERUPTIONS AND EXANTHEMS NEC",2846.0,,1053.0,SKIN AND SUBCUTANEOUS TISSUE DISORDERS,954.0,SKIN AND SUBCUTANEOUS TISSUE DISORDERS,954.0,N,DOSE NOT CHANGED,NOT RELATED,RECOVERED/RESOLVED,,,,1,,,999,2009-12-22,2009-12-22,2010-01-05,,,,MILD
MAXIS-08,AE,MAXIS-08-408-001,7,OCCASIONAL HEADACHE,,INTERMITTENT HEADACHE,51976.0,HEADACHE,14964.0,HEADACHES NEC,2516.0,,1111.0,NERVOUS SYSTEM DISORDERS,948.0,NERVOUS SYSTEM DISORDERS,948.0,N,DOSE NOT CHANGED,NOT RELATED,NOT RECOVERED/NOT RESOLVED,,,,2,,,999,2009-07-21,2009-07-21,,,,,MODERATE
MAXIS-08,AE,MAXIS-08-408-001,8,SINUS INFECTION,,SINUS INFECTION,48820.0,SINUSITIS,16756.0,UPPER RESPIRATORY TRACT INFECTIONS,2975.0,,1082.0,INFECTIONS AND INFESTATIONS,958.0,INFECTIONS AND INFESTATIONS,958.0,N,DOSE NOT CHANGED,NOT RELATED,RECOVERED/RESOLVED,,,,1,,,999,2009-12-29,2009-12-29,2010-01-05,,,,MILD
MAXIS-08,AE,MAXIS-08-408-001,9,LEFT LOWER EXTREMITY NEUROPATHY,,NEUROPATHY,1414594.0,NEUROPATHY PERIPHERAL,17827.0,PERIPHERAL NEUROPATHIES NEC,2545.0,,1143.0,NERVOUS SYSTEM DISORDERS,948.0,NERVOUS SYSTEM DISORDERS,948.0,N,DOSE NOT CHANGED,POSSIBLY RELATED,RECOVERED/RESOLVED,,,,2,,,999,2009-10-06,2009-10-06,2009-11-24,,,,MODERATE
MAXIS-08,AE,MAXIS-08-408-001,10,ELEVATED URINE PROTEINURIA,,PROTEINURIA AGGRAVATED,48627.0,PROTEINURIA,11929.0,URINARY ABNORMALITIES,2199.0,,1138.0,RENAL AND URINARY DISORDERS,953.0,RENAL AND URINARY DISORDERS,953.0,N,DOSE NOT CHANGED,NOT RELATED,RECOVERED/RESOLVED,,,,2,,,999,2009-07-28,2009-07-28,2009-07-29,,,,MODERATE
MAXIS-08,AE,MAXIS-08-408-001,11,INTERMITTENT VOMITING,,,,VOMITING,16889.0,NAUSEA AND VOMITING SYMPTOMS,2916.0,,1137.0,GASTROINTESTINAL DISORDERS,952.0,GASTROINTESTINAL DISORDERS,952.0,N,DOSE NOT CHANGED,POSSIBLY RELATED,RECOVERED/RESOLVED,,,,1,,,999,2009-08-19,2009-08-19,2010-02-18,,,,MILD
MAXIS-08,AE,MAXIS-08-408-001,12,ENTEROBACTERBACCILI INFECTION (URINARY TRACT INFECTION),,,,URINARY TRACT INFECTION,16805.0,URINARY TRACT INFECTIONS,1979.0,,1082.0,INFECTIONS AND INFESTATIONS,958.0,INFECTIONS AND INFESTATIONS,958.0,N,DOSE NOT CHANGED,NOT RELATED,RECOVERED/RESOLVED,,,,2,,,999,2009-08-25,2009-08-25,2009-08-31,,,,MODERATE
MAXIS-08,AE,MAXIS-08-408-001,13,CHILLS,,,,CHILLS,19098.0,FEELINGS AND SENSATIONS NEC,1982319.0,,1195.0,GENERAL DISORDERS AND ADMINISTRATION SITE CONDITIONS,963.0,GENERAL DISORDERS AND ADMINISTRATION SITE CONDITIONS,963.0,N,DOSE NOT CHANGED,NOT RELATED,RECOVERED/RESOLVED,,,,1,,,999,2009-08-18,2009-08-18,2009-08-18,,,,MILD
MAXIS-08,AE,MAXIS-08-408-001,14,FEVER,,FEVER,20707.0,PYREXIA,3601.0,FEBRILE DISORDERS,2220.0,,1140.0,GENERAL DISORDERS AND ADMINISTRATION SITE CONDITIONS,963.0,GENERAL DISORDERS AND ADMINISTRATION SITE CONDITIONS,963.0,N,DOSE NOT CHANGED,POSSIBLY RELATED,RECOVERED/RESOLVED,,,,1,,,999,2009-08-18,2009-08-18,2009-08-19,,,,MILD
MAXIS-08,AE,MAXIS-08-408-001,15,LEFT KNEE SWOLLEN,,SWELLING OF L KNEE,27655.0,JOINT SWELLING,6174.0,JOINT RELATED SIGNS AND SYMPTOMS,2418.0,,970.0,MUSCULOSKELETAL AND CONNECTIVE TISSUE DISORDERS,955.0,MUSCULOSKELETAL AND CONNECTIVE TISSUE DISORDERS,955.0,N,DOSE NOT CHANGED,NOT RELATED,RECOVERED/RESOLVED,,,,1,,,999,2009-08-18,2009-08-18,2009-08-25,,,,MILD
MAXIS-08,AE,MAXIS-08-408-001,16,SHARP LEFT KNEE PAIN,,KNEE PAIN,21621.0,ARTHRALGIA,3045.0,JOINT RELATED SIGNS AND SYMPTOMS,2418.0,,970.0,MUSCULOSKELETAL AND CONNECTIVE TISSUE DISORDERS,955.0,MUSCULOSKELETAL AND CONNECTIVE TISSUE DISORDERS,955.0,N,DOSE NOT CHANGED,NOT RELATED,RECOVERED/RESOLVED,,,,2,,,999,2009-08-15,2009-08-15,2009-08-18,,,,MODERATE
MAXIS-08,AE,MAXIS-08-408-001,17,INTERMITTENT NAUSEA,,,,NAUSEA,3478.0,NAUSEA AND VOMITING SYMPTOMS,2916.0,,1137.0,GASTROINTESTINAL DISORDERS,952.0,GASTROINTESTINAL DISORDERS,952.0,N,DOSE NOT CHANGED,POSSIBLY RELATED,RECOVERED/RESOLVED,,,,1,,,999,2009-08-05,2009-08-05,2009-08-18,,,,MILD
MAXIS-08,AE,MAXIS-08-408-001,18,TRANSIENT PERIPHERAL NEUROPATHY,,,,NEUROPATHY PERIPHERAL,17827.0,PERIPHERAL NEUROPATHIES NEC,2545.0,,1143.0,NERVOUS SYSTEM DISORDERS,948.0,NERVOUS SYSTEM DISORDERS,948.0,N,DOSE NOT CHANGED,POSSIBLY RELATED,RECOVERED/RESOLVED,,,,1,,,999,2009-08-05,2009-08-05,2009-08-05,,,,MILD
MAXIS-08,AE,MAXIS-08-408-001,19,PERIPHERAL NEUROPATHY,,,,NEUROPATHY PERIPHERAL,17827.0,PERIPHERAL NEUROPATHIES NEC,2545.0,,1143.0,NERVOUS SYSTEM DISORDERS,948.0,NERVOUS SYSTEM DISORDERS,948.0,N,DOSE NOT CHANGED,POSSIBLY RELATED,RECOVERED/RESOLVED,,,,1,,,999,2009-07-22,2009-07-22,2009-08-04,,,,MILD
MAXIS-08,AE,MAXIS-08-408-001,20,URINARY URGENCY,,URINARY URGENCY,21743.0,MICTURITION URGENCY,5836.0,BLADDER AND URETHRAL SYMPTOMS,2200.0,,1138.0,RENAL AND URINARY DISORDERS,953.0,RENAL AND URINARY DISORDERS,953.0,N,DOSE NOT CHANGED,NOT RELATED,RECOVERED/RESOLVED,,,,2,,,999,2009-11-24,2009-11-24,2009-12-01,,,,MODERATE
MAXIS-08,AE,MAXIS-08-408-001,21,CONSTIPATION,,,,CONSTIPATION,3143.0,GASTROINTESTINAL ATONIC AND HYPOMOTILITY DISORDERS NEC,1346.0,,1228.0,GASTROINTESTINAL DISORDERS,952.0,GASTROINTESTINAL DISORDERS,952.0,N,DOSE NOT CHANGED,POSSIBLY RELATED,RECOVERED/RESOLVED,,,,2,,,999,2009-07-23,2009-07-23,2009-08-04,,,,MODERATE
MAXIS-08,AE,MAXIS-08-408-001,22,INTERMITTENT NAUSEA,,,,NAUSEA,3478.0,NAUSEA AND VOMITING SYMPTOMS,2916.0,,1137.0,GASTROINTESTINAL DISORDERS,952.0,GASTROINTESTINAL DISORDERS,952.0,N,DOSE NOT CHANGED,POSSIBLY RELATED,RECOVERED/RESOLVED,,,,1,,,999,2009-08-19,2009-08-19,2010-02-18,,,,MILD
MAXIS-08,AE,MAXIS-08-408-001,23,INTERMITTENT FATIGUE,,,,FATIGUE,3246.0,ASTHENIC CONDITIONS,2228.0,,1195.0,GENERAL DISORDERS AND ADMINISTRATION SITE CONDITIONS,963.0,GENERAL DISORDERS AND ADMINISTRATION SITE CONDITIONS,963.0,N,DOSE NOT CHANGED,POSSIBLY RELATED,NOT RECOVERED/NOT RESOLVED,,,,1,,,999,2009-07-28,2009-07-28,,,,,MILD
MAXIS-08,AE,MAXIS-08-408-001,24,NAUSEA,,,,NAUSEA,3478.0,NAUSEA AND VOMITING SYMPTOMS,2916.0,,1137.0,GASTROINTESTINAL DISORDERS,952.0,GASTROINTESTINAL DISORDERS,952.0,N,DOSE NOT CHANGED,POSSIBLY RELATED,RECOVERED/RESOLVED,,,,1,,,999,2009-07-23,2009-07-23,2009-08-04,,,,MILD
MAXIS-08,AE,MAXIS-08-408-001,25,VAGUE TINGLING NUMBNESS (KNEE TO THIGH),Numbness of extremities,,,Hypoaesthesia,,,,,,,,,,N,DOSE NOT CHANGED,POSSIBLY RELATED,NOT RECOVERED/NOT RESOLVED,,,,2,,,999,2009-08-15,2009-08-15,,,,,MODERATE
MAXIS-08,AE,MAXIS-08-408-001,26,VAGUE SKIN RASH (BACK OF HEAD),Skin rash,,,Rash,,,,,,,,,,N,DOSE NOT CHANGED,NOT RELATED,RECOVERED/RESOLVED,,,,1,,,999,2009-12-22,2009-12-22,2010-01-05,,,,MILD
MAXIS-08,AE,MAXIS-08-408-001,27,URINARY URGENCY,,,,Micturition urgency,,,,,,,,,,N,DOSE NOT CHANGED,NOT RELATED,RECOVERED/RESOLVED,,,,2,,,999,2009-11-24,2009-11-24,2009-12-01,,,,MODERATE
MAXIS-08,AE,MAXIS-08-408-001,28,TRANSIENT PERIPHERAL NEUROPATHY,Peripheral neuropathy NOS,,,Neuropathy peripheral,,,,,,,,,,N,DOSE NOT CHANGED,POSSIBLY RELATED,RECOVERED/RESOLVED,,,,1,,,999,2009-08-05,2009-08-05,2009-08-05,,,,MILD
MAXIS-08,AE,MAXIS-08-408-001,29,SINUS INFECTION,,,,Sinusitis,,,,,,,,,,N,DOSE NOT CHANGED,NOT RELATED,RECOVERED/RESOLVED,,,,1,,,999,2009-12-29,2009-12-29,2010-01-05,,,,MILD
MAXIS-08,AE,MAXIS-08-408-001,30,SHARP LEFT KNEE PAIN,Knee pain,,,Arthralgia,,,,,,,,,,N,DOSE NOT CHANGED,NOT RELATED,RECOVERED/RESOLVED,,,,2,,,999,2009-08-15,2009-08-15,2009-08-18,,,,MODERATE
MAXIS-08,AE,MAXIS-08-408-001,31,PERIPHERAL NEUROPATHY,Peripheral neuropathy NOS,,,Neuropathy peripheral,,,,,,,,,,N,DOSE NOT CHANGED,POSSIBLY RELATED,NOT RECOVERED/NOT RESOLVED,,,,1,,,999,2009-08-11,2009-08-11,,,,,MILD
MAXIS-08,AE,MAXIS-08-408-001,32,PERIPHERAL NEUROPATHY,Peripheral neuropathy NOS,,,Neuropathy peripheral,,,,,,,,,,N,DOSE NOT CHANGED,POSSIBLY RELATED,RECOVERED/RESOLVED,,,,1,,,999,2009-07-22,2009-07-22,2009-08-04,,,,MILD
MAXIS-08,AE,MAXIS-08-408-001,33,OCCASIONAL HEADACHE,Headache,,,Headache,,,,,,,,,,N,DOSE NOT CHANGED,NOT RELATED,NOT RECOVERED/NOT RESOLVED,,,,2,,,999,2009-07-21,2009-07-21,,,,,MODERATE
MAXIS-08,AE,MAXIS-08-408-001,34,NAUSEA,,,,Nausea,,,,,,,,,,N,DOSE NOT CHANGED,POSSIBLY RELATED,RECOVERED/RESOLVED,,,,1,,,999,2009-07-23,2009-07-23,2009-08-04,,,,MILD
MAXIS-08,AE,MAXIS-08-408-001,35,LEFT LOWER EXTREMITY NEUROPATHY,Neuropathy,,,Neuropathy peripheral,,,,,,,,,,N,DOSE NOT CHANGED,POSSIBLY RELATED,RECOVERED/RESOLVED,,,,2,,,999,2009-10-06,2009-10-06,2009-11-24,,,,MODERATE
MAXIS-08,AE,MAXIS-08-408-001,36,LEFT KNEE SWOLLEN,Swelling of L knee,,,Joint swelling,,,,,,,,,,N,DOSE NOT CHANGED,NOT RELATED,RECOVERED/RESOLVED,,,,1,,,999,2009-08-18,2009-08-18,2009-08-25,,,,MILD
MAXIS-08,AE,MAXIS-08-408-001,37,RIGHT FOCAL ECCHYMOTIC LESION MEDIAL 5TH TOE,Purpura,,,Purpura,,,,,,,,,,N,DOSE NOT CHANGED,NOT RELATED,RECOVERED/RESOLVED,,,,1,,,999,2009-11-03,2009-11-03,2009-11-10,,,,MILD
MAXIS-08,AE,MAXIS-08-408-001,38,INTERMITTENT NAUSEA,Nausea,,,Nausea,,,,,,,,,,N,DOSE NOT CHANGED,POSSIBLY RELATED,RECOVERED/RESOLVED,,,,1,,,999,2009-08-19,2009-08-19,2010-02-18,,,,MILD
MAXIS-08,AE,MAXIS-08-408-001,39,INTERMITTENT NAUSEA,Nausea,,,Nausea,,,,,,,,,,N,DOSE NOT CHANGED,POSSIBLY RELATED,RECOVERED/RESOLVED,,,,1,,,999,2009-08-05,2009-08-05,2009-08-18,,,,MILD
MAXIS-08,AE,MAXIS-08-408-001,40,INTERMITTENT FATIGUE,Fatigue,,,Fatigue,,,,,,,,,,N,DOSE NOT CHANGED,POSSIBLY RELATED,NOT RECOVERED/NOT RESOLVED,,,,1,,,999,2009-07-28,2009-07-28,,,,,MILD
MAXIS-08,AE,MAXIS-08-408-001,41,FEVER,,,,Pyrexia,,,,,,,,,,N,DOSE NOT CHANGED,POSSIBLY RELATED,RECOVERED/RESOLVED,,,,1,,,999,2009-08-18,2009-08-18,2009-08-19,,,,MILD
MAXIS-08,AE,MAXIS-08-408-001,42,ENTEROBACTERBACCILI INFECTION (URINARY TRACT INFECTION),Urinary tract infection bacterial,,,Urinary tract infection bacterial,,,,,,,,,,N,DOSE NOT CHANGED,NOT RELATED,RECOVERED/RESOLVED,,,,2,,,999,2009-08-25,2009-08-25,2009-08-31,,,,MODERATE
MAXIS-08,AE,MAXIS-08-408-001,43,ELEVATED URINE PROTEINURIA,Proteinuria aggravated,,,Proteinuria,,,,,,,,,,N,DOSE NOT CHANGED,NOT RELATED,RECOVERED/RESOLVED,,,,2,,,999,2009-07-28,2009-07-28,2009-07-29,,,,MODERATE
MAXIS-08,AE,MAXIS-08-408-001,44,CONSTIPATION,,,,Constipation,,,,,,,,,,N,DOSE NOT CHANGED,POSSIBLY RELATED,RECOVERED/RESOLVED,,,,2,,,999,2009-10-08,2009-10-08,2009-10-13,,,,MODERATE
MAXIS-08,AE,MAXIS-08-408-001,45,CONSTIPATION,,,,Constipation,,,,,,,,,,N,DOSE NOT CHANGED,POSSIBLY RELATED,RECOVERED/RESOLVED,,,,2,,,999,2009-07-23,2009-07-23,2009-08-04,,,,MODERATE
MAXIS-08,AE,MAXIS-08-408-001,46,CHILLS,,,,Chills,,,,,,,,,,N,DOSE NOT CHANGED,NOT RELATED,RECOVERED/RESOLVED,,,,1,,,999,2009-08-18,2009-08-18,2009-08-18,,,,MILD
MAXIS-08,AE,MAXIS-08-408-001,47,INTERMITTENT VOMITING,Vomiting,,,Vomiting,,,,,,,,,,N,DOSE NOT CHANGED,POSSIBLY RELATED,RECOVERED/RESOLVED,,,,1,,,999,2009-08-19,2009-08-19,2010-02-18,,,,MILD
MAXIS-08,AE,MAXIS-08-408-001,48,CAR ACCIDENT,Automobile accident,,,Road traffic accident,,,,,,,,,,N,DOSE NOT CHANGED,NOT RELATED,RECOVERED/RESOLVED,,,,1,,,999,2009-12-22,2009-12-22,2009-12-22,,,,MILD
MAXIS-08,AE,MAXIS-08-408-001,1,HEMORRHAGIC SPOTS,,BLEEDING SPOT SUBCUTANEOUS,35452.0,HAEMORRHAGE SUBCUTANEOUS,7823.0,SKIN HAEMORRHAGES,2456.0,,1194.0,SKIN AND SUBCUTANEOUS TISSUE DISORDERS,954.0,SKIN AND SUBCUTANEOUS TISSUE DISORDERS,954.0,N,DOSE NOT CHANGED,NOT RELATED,NOT RECOVERED/NOT RESOLVED,,,,1,,,999,2009-09-18,2009-09-18,,,,,MILD
MAXIS-08,AE,MAXIS-08-408-001,2,FATIGUE,,,,FATIGUE,3246.0,ASTHENIC CONDITIONS,2228.0,,1195.0,GENERAL DISORDERS AND ADMINISTRATION SITE CONDITIONS,963.0,GENERAL DISORDERS AND ADMINISTRATION SITE CONDITIONS,963.0,N,DOSE NOT CHANGED,POSSIBLY RELATED,NOT RECOVERED/NOT RESOLVED,,,,1,,,999,2009-09-25,2009-09-25,,,,,MILD
MAXIS-08,AE,MAXIS-08-408-001,3,LOSS OF APPETITE,,APPETITE LOST,20178.0,DECREASED APPETITE,17546.0,APPETITE DISORDERS,1664.0,,1063.0,METABOLISM AND NUTRITION DISORDERS,957.0,METABOLISM AND NUTRITION DISORDERS,957.0,N,DOSE NOT CHANGED,NOT RELATED,RECOVERED/RESOLVED,,,,1,,,999,2009-10-08,2009-10-08,2009-10-15,,,,MILD
MAXIS-08,AE,MAXIS-08-408-001,4,INTERMITTENT WEAKNESS,,WEAKNESS,28093.0,ASTHENIA,3052.0,ASTHENIC CONDITIONS,2228.0,,1195.0,GENERAL DISORDERS AND ADMINISTRATION SITE CONDITIONS,963.0,GENERAL DISORDERS AND ADMINISTRATION SITE CONDITIONS,963.0,N,DOSE NOT CHANGED,POSSIBLY RELATED,NOT RECOVERED/NOT RESOLVED,,,,2,,,999,2009-10-08,2009-10-08,,,,,MODERATE
MAXIS-08,AE,MAXIS-08-408-001,5,DIZZINESS,,,,DIZZINESS,13503.0,NEUROLOGICAL SIGNS AND SYMPTOMS NEC,2533.0,,1115.0,NERVOUS SYSTEM DISORDERS,948.0,NERVOUS SYSTEM DISORDERS,948.0,N,DOSE NOT CHANGED,POSSIBLY RELATED,RECOVERED/RESOLVED,,,,1,,,999,2009-11-04,2009-11-04,2009-11-06,,,,MILD
MAXIS-08,AE,MAXIS-08-408-001,6,EYE PAIN,,,,EYE PAIN,3240.0,OCULAR DISORDERS NEC,1499.0,,1018.0,EYE DISORDERS,949.0,EYE DISORDERS,949.0,N,DOSE NOT CHANGED,NOT RELATED,RECOVERED/RESOLVED,,,,1,,,999,2009-11-20,2009-11-20,2009-11-20,,,,MILD
MAXIS-08,AE,MAXIS-08-408-001,7,HYPOTENSION,,,,HYPOTENSION,16545.0,VASCULAR HYPOTENSIVE DISORDERS,2939.0,,1119.0,VASCULAR DISORDERS,962.0,VASCULAR DISORDERS,962.0,N,DOSE NOT CHANGED,UNLIKELY RELATED,RECOVERED/RESOLVED,,,,1,,,999,2009-11-07,2009-11-07,2009-11-08,,,,MILD
MAXIS-08,AE,MAXIS-08-408-001,8,UPSET STOMACH,,UPSET STOMACH,28158.0,ABDOMINAL DISCOMFORT,12906.0,GASTROINTESTINAL SIGNS AND SYMPTOMS NEC,1695.0,,1137.0,GASTROINTESTINAL DISORDERS,952.0,GASTROINTESTINAL DISORDERS,952.0,N,DOSE NOT CHANGED,UNLIKELY RELATED,RECOVERED/RESOLVED,,,,1,,,999,2009-11-13,2009-11-13,2009-11-13,,,,MILD
MAXIS-08,AE,MAXIS-08-408-001,9,TINGLING HANDS/FEET,,TINGLING FEET/HANDS,21888.0,PARAESTHESIA,12682.0,PARAESTHESIAS AND DYSAESTHESIAS,2534.0,,1115.0,NERVOUS SYSTEM DISORDERS,948.0,NERVOUS SYSTEM DISORDERS,948.0,N,DOSE NOT CHANGED,PROBABLY RELATED,RECOVERED/RESOLVED,,,,1,,,999,2009-11-20,2009-11-20,2009-11-20,,,,MILD
MAXIS-08,AE,MAXIS-08-408-001,10,RIGHT JAW PAIN,,JAW PAIN,21648.0,PAIN IN JAW,6368.0,BONE RELATED SIGNS AND SYMPTOMS,2409.0,,1041.0,MUSCULOSKELETAL AND CONNECTIVE TISSUE DISORDERS,955.0,MUSCULOSKELETAL AND CONNECTIVE TISSUE DISORDERS,955.0,N,DOSE NOT CHANGED,NOT RELATED,RECOVERED/RESOLVED,,,,2,,,999,2009-07-24,2009-07-24,2009-07-24,,,,MODERATE
MAXIS-08,AE,MAXIS-08-408-001,11,LEFT LOWER NECK WITH INCREASED PUFFINESS,,TISSUE PUFFING,21883.0,SWELLING,16815.0,GENERAL SIGNS AND SYMPTOMS NEC,2237.0,,1195.0,GENERAL DISORDERS AND ADMINISTRATION SITE CONDITIONS,963.0,GENERAL DISORDERS AND ADMINISTRATION SITE CONDITIONS,963.0,N,DOSE NOT CHANGED,UNLIKELY RELATED,NOT RECOVERED/NOT RESOLVED,,,,2,,,999,2009-09-10,2009-09-10,,,,,MODERATE
MAXIS-08,AE,MAXIS-08-408-001,12,NAUSEA,,,,NAUSEA,3478.0,NAUSEA AND VOMITING SYMPTOMS,2916.0,,1137.0,GASTROINTESTINAL DISORDERS,952.0,GASTROINTESTINAL DISORDERS,952.0,N,DOSE NOT CHANGED,PROBABLY RELATED,RECOVERED/RESOLVED,,,,1,,,999,2009-11-06,2009-11-06,2009-11-06,,,,MILD
MAXIS-08,AE,MAXIS-08-408-001,13,PERIPHERAL PARESTHESIA,,PARESTHESIA,39002.0,PARAESTHESIA,12682.0,PARAESTHESIAS AND DYSAESTHESIAS,2534.0,,1115.0,NERVOUS SYSTEM DISORDERS,948.0,NERVOUS SYSTEM DISORDERS,948.0,N,DOSE NOT CHANGED,POSSIBLY RELATED,RECOVERED/RESOLVED,,,,1,,,999,2009-09-03,2009-09-03,2009-09-24,,,,MILD
MAXIS-08,AE,MAXIS-08-408-001,14,BILATERAL SUPRACLAVICULAR/LOWER NECK PUFFYNESS,Neck swelling,,,Local swelling,,,,,,,,,,N,DOSE NOT CHANGED,UNLIKELY RELATED,NOT RECOVERED/NOT RESOLVED,,,,1,,,999,2009-09-03,2009-09-03,,,,,MILD
MAXIS-08,AE,MAXIS-08-408-001,15,BILATERAL SUPRACLAVICULAR/LOWER NECK PUFFYNESS,,NECK SWELLING,48091.0,LOCAL SWELLING,6786.0,GENERAL SIGNS AND SYMPTOMS NEC,2237.0,,1195.0,GENERAL DISORDERS AND ADMINISTRATION SITE CONDITIONS,963.0,GENERAL DISORDERS AND ADMINISTRATION SITE CONDITIONS,963.0,N,DOSE NOT CHANGED,UNLIKELY RELATED,NOT RECOVERED/NOT RESOLVED,,,,1,,,999,2009-09-03,2009-09-03,,,,,MILD
MAXIS-08,AE,MAXIS-08-408-001,16,PETECHIAL SKIN RASH RIGHT THIGH,,PETECHIAL RASH,29228.0,PETECHIAE,5285.0,PURPURA AND RELATED CONDITIONS,2455.0,,1194.0,SKIN AND SUBCUTANEOUS TISSUE DISORDERS,954.0,SKIN AND SUBCUTANEOUS TISSUE DISORDERS,954.0,N,DOSE NOT CHANGED,POSSIBLY RELATED,RECOVERED/RESOLVED,,,,1,,,999,2009-08-27,2009-08-27,2009-09-03,,,,MILD
MAXIS-08,AE,MAXIS-08-408-001,17,RIGHT INTRACLAVICULAR AREA PAIN,,,,BACK PAIN,3060.0,MUSCULOSKELETAL AND CONNECTIVE TISSUE PAIN AND DISCOMFORT,1982317.0,,988.0,MUSCULOSKELETAL AND CONNECTIVE TISSUE DISORDERS,955.0,MUSCULOSKELETAL AND CONNECTIVE TISSUE DISORDERS,955.0,N,DOSE NOT CHANGED,NOT RELATED,RECOVERED/RESOLVED,,,,1,,,999,2009-08-27,2009-08-27,2009-09-03,,,,MILD
MAXIS-08,AE,MAXIS-08-408-001,18,ECCYMOSIS LEFT KNEE,,,,ECCHYMOSIS,3204.0,PURPURA AND RELATED CONDITIONS,2455.0,,1194.0,SKIN AND SUBCUTANEOUS TISSUE DISORDERS,954.0,SKIN AND SUBCUTANEOUS TISSUE DISORDERS,954.0,N,DOSE NOT CHANGED,POSSIBLY RELATED,RECOVERED/RESOLVED,,,,1,,,999,2009-08-21,2009-08-21,2009-08-27,,,,MILD
MAXIS-08,AE,MAXIS-08-408-001,19,WEAKNESS,,WEAKNESS,28093.0,ASTHENIA,3052.0,ASTHENIC CONDITIONS,2228.0,,1195.0,GENERAL DISORDERS AND ADMINISTRATION SITE CONDITIONS,963.0,GENERAL DISORDERS AND ADMINISTRATION SITE CONDITIONS,963.0,N,DOSE NOT CHANGED,NOT RELATED,RECOVERED/RESOLVED,,,,1,,,999,2009-08-12,2009-08-12,2009-08-14,,,,MILD
MAXIS-08,AE,MAXIS-08-408-001,20,CREATININE ELEVATED,,CREATININE INCREASED,29203.0,BLOOD CREATININE INCREASED,5580.0,RENAL FUNCTION ANALYSES,2822.0,,1236.0,INVESTIGATIONS,944.0,INVESTIGATIONS,944.0,Y,DOSE NOT CHANGED,NOT RELATED,RECOVERED/RESOLVED,,,,2,,,999,2009-08-04,2009-08-04,2009-08-05,,,,MODERATE
MAXIS-08,AE,MAXIS-08-408-001,21,RIGHT SIDED CHEST PAIN,,,,CHEST PAIN,12589.0,PAIN AND DISCOMFORT NEC,2241.0,,1195.0,GENERAL DISORDERS AND ADMINISTRATION SITE CONDITIONS,963.0,GENERAL DISORDERS AND ADMINISTRATION SITE CONDITIONS,963.0,Y,DOSE NOT CHANGED,NOT RELATED,RECOVERED/RESOLVED,,,,2,,,999,2009-08-04,2009-08-04,2009-08-05,,,,MODERATE
MAXIS-08,AE,MAXIS-08-408-001,22,CHEST HEAVINESS,,CHEST HEAVINESS,48838.0,CHEST DISCOMFORT,12911.0,PAIN AND DISCOMFORT NEC,2241.0,,1195.0,GENERAL DISORDERS AND ADMINISTRATION SITE CONDITIONS,963.0,GENERAL DISORDERS AND ADMINISTRATION SITE CONDITIONS,963.0,N,DOSE NOT CHANGED,UNLIKELY RELATED,RECOVERED/RESOLVED,,,,1,,,999,2009-07-30,2009-07-30,2009-07-31,,,,MILD
MAXIS-08,AE,MAXIS-08-408-001,23,NAUSEA,,,,NAUSEA,3478.0,NAUSEA AND VOMITING SYMPTOMS,2916.0,,1137.0,GASTROINTESTINAL DISORDERS,952.0,GASTROINTESTINAL DISORDERS,952.0,N,DOSE NOT CHANGED,POSSIBLY RELATED,RECOVERED/RESOLVED,,,,1,,,999,2009-07-30,2009-07-30,2009-07-31,,,,MILD
MAXIS-08,AE,MAXIS-08-408-001,24,RIGHT MOLAR TOOTH EXTRACTION,,,,TOOTH EXTRACTION,18359.0,DENTAL AND GINGIVAL THERAPEUTIC PROCEDURES,1461.0,,1057.0,SURGICAL AND MEDICAL PROCEDURES,961.0,SURGICAL AND MEDICAL PROCEDURES,961.0,N,DOSE NOT CHANGED,NOT RELATED,RECOVERED/RESOLVED,,,,2,,,999,2009-10-15,2009-10-15,2009-10-15,,,,MODERATE
MAXIS-08,AE,MAXIS-08-408-001,25,COLD CHILLS,,,,CHILLS,19098.0,FEELINGS AND SENSATIONS NEC,1982319.0,,1195.0,GENERAL DISORDERS AND ADMINISTRATION SITE CONDITIONS,963.0,GENERAL DISORDERS AND ADMINISTRATION SITE CONDITIONS,963.0,N,DOSE NOT CHANGED,UNLIKELY RELATED,NOT RECOVERED/NOT RESOLVED,,,,1,,,999,2009-07-25,2009-07-25,,,,,MILD
MAXIS-08,AE,MAXIS-08-408-001,26,PAIN TO RIGHT JAW AREA (TOOTHACHE),,TOOTH ACHE,26404.0,TOOTHACHE,3742.0,DENTAL PAIN AND SENSATION DISORDERS,1909.0,,1224.0,GASTROINTESTINAL DISORDERS,952.0,GASTROINTESTINAL DISORDERS,952.0,N,DOSE NOT CHANGED,NOT RELATED,RECOVERED/RESOLVED,,,,1,,,999,2009-07-24,2009-07-24,2009-07-24,,,,MILD
MAXIS-08,AE,MAXIS-08-408-001,27,DIARRHEA,,DIARRHEA,20541.0,DIARRHOEA,16440.0,DIARRHOEA (EXCL INFECTIVE),1914.0,,1228.0,GASTROINTESTINAL DISORDERS,952.0,GASTROINTESTINAL DISORDERS,952.0,N,DOSE NOT CHANGED,NOT RELATED,RECOVERED/RESOLVED,,,,1,,,999,2009-09-10,2009-09-10,2009-09-18,,,,MILD
MAXIS-08,AE,MAXIS-08-408-001,28,LIGHT HEADEDNESS,,LIGHT HEADEDNESS,28367.0,DIZZINESS,13503.0,NEUROLOGICAL SIGNS AND SYMPTOMS NEC,2533.0,,1115.0,NERVOUS SYSTEM DISORDERS,948.0,NERVOUS SYSTEM DISORDERS,948.0,N,DOSE NOT CHANGED,NOT RELATED,RECOVERED/RESOLVED,,,,1,,,999,2009-07-30,2009-07-30,2009-07-31,,,,MILD
MAXIS-08,AE,MAXIS-08-408-001,29,PERIPHERAL NEUROPATHY BILATERAL FINGERS AND TOES,,,,NEUROPATHY PERIPHERAL,17827.0,PERIPHERAL NEUROPATHIES NEC,2545.0,,1143.0,NERVOUS SYSTEM DISORDERS,948.0,NERVOUS SYSTEM DISORDERS,948.0,N,DOSE NOT CHANGED,PROBABLY RELATED,RECOVERED/RESOLVED,,,,1,,,999,2009-12-08,2009-12-08,2010-02-08,,,,MILD
MAXIS-08,AE,MAXIS-08-408-001,30,DECREASED PERIANAL SENSATION,,SENSATION LOSS,36196.0,SENSORY LOSS,7754.0,SENSORY ABNORMALITIES NEC,2536.0,,1115.0,NERVOUS SYSTEM DISORDERS,948.0,NERVOUS SYSTEM DISORDERS,948.0,N,DOSE NOT CHANGED,POSSIBLY RELATED,NOT RECOVERED/NOT RESOLVED,,,,1,,,999,2009-12-23,2009-12-23,,,,,MILD
MAXIS-08,AE,MAXIS-08-408-001,31,PERIPHERAL NEUROPATHY BILATERAL FINGERS AND TOES,Peripheral neuropathy NOS,,,Neuropathy peripheral,,,,,,,,,,N,DOSE NOT CHANGED,PROBABLY RELATED,RECOVERED/RESOLVED,,,,1,,,999,2009-12-08,2009-12-08,2010-02-08,,,,MILD
MAXIS-08,AE,MAXIS-08-408-001,32,PAIN TO RIGHT JAW AREA (TOOTHACHE),Toothache,,,Toothache,,,,,,,,,,N,DOSE NOT CHANGED,NOT RELATED,RECOVERED/RESOLVED,,,,1,,,999,2009-07-24,2009-07-24,2009-07-24,,,,MILD
MAXIS-08,AE,MAXIS-08-408-001,33,NAUSEA,,,,Nausea,,,,,,,,,,N,DOSE NOT CHANGED,PROBABLY RELATED,RECOVERED/RESOLVED,,,,1,,,999,2009-11-06,2009-11-06,2009-11-06,,,,MILD
MAXIS-08,AE,MAXIS-08-408-001,34,NAUSEA,,,,Nausea,,,,,,,,,,N,DOSE NOT CHANGED,POSSIBLY RELATED,RECOVERED/RESOLVED,,,,1,,,999,2009-07-30,2009-07-30,2009-07-31,,,,MILD
MAXIS-08,AE,MAXIS-08-408-001,35,LOSS OF APPETITE,Appetite lost,,,Decreased appetite,,,,,,,,,,N,DOSE NOT CHANGED,NOT RELATED,RECOVERED/RESOLVED,,,,1,,,999,2009-10-08,2009-10-08,2009-10-15,,,,MILD
MAXIS-08,AE,MAXIS-08-408-001,36,LIGHT HEADEDNESS,,,,Dizziness,,,,,,,,,,N,DOSE NOT CHANGED,NOT RELATED,RECOVERED/RESOLVED,,,,1,,,999,2009-07-30,2009-07-30,2009-07-31,,,,MILD
MAXIS-08,AE,MAXIS-08-408-001,37,LEFT LOWER NECK WITH INCREASED PUFFINESS,Neck swelling,,,Local swelling,,,,,,,,,,N,DOSE NOT CHANGED,UNLIKELY RELATED,NOT RECOVERED/NOT RESOLVED,,,,2,,,999,2009-09-10,2009-09-10,,,,,MODERATE
MAXIS-08,AE,MAXIS-08-408-001,38,INTERMITTENT WEAKNESS,Weakness,,,Asthenia,,,,,,,,,,N,DOSE NOT CHANGED,POSSIBLY RELATED,NOT RECOVERED/NOT RESOLVED,,,,2,,,999,2009-10-08,2009-10-08,,,,,MODERATE
MAXIS-08,AE,MAXIS-08-408-001,39,HYPOTENSION,,,,Hypotension,,,,,,,,,,N,DOSE NOT CHANGED,UNLIKELY RELATED,RECOVERED/RESOLVED,,,,1,,,999,2009-11-07,2009-11-07,2009-11-08,,,,MILD
MAXIS-08,AE,MAXIS-08-408-001,40,HEMORRHAGIC SPOTS,Bleeding spot subcutaneous,,,Haemorrhage subcutaneous,,,,,,,,,,N,DOSE NOT CHANGED,NOT RELATED,NOT RECOVERED/NOT RESOLVED,,,,1,,,999,2009-09-18,2009-09-18,,,,,MILD
MAXIS-08,AE,MAXIS-08-408-001,41,GENERALIZED HEMORRHAGIC SKIN RASH,Rash hemorrhagic,,,Purpura,,,,,,,,,,N,DOSE NOT CHANGED,POSSIBLY RELATED,NOT RECOVERED/NOT RESOLVED,,,,1,,,999,2009-12-27,2009-12-27,,,,,MILD
MAXIS-08,AE,MAXIS-08-408-001,42,FATIGUE,,,,Fatigue,,,,,,,,,,N,DOSE NOT CHANGED,POSSIBLY RELATED,NOT RECOVERED/NOT RESOLVED,,,,1,,,999,2009-09-25,2009-09-25,,,,,MILD
MAXIS-08,AE,MAXIS-08-408-001,43,EYE PAIN,,,,Eye pain,,,,,,,,,,N,DOSE NOT CHANGED,NOT RELATED,RECOVERED/RESOLVED,,,,1,,,999,2009-11-20,2009-11-20,2009-11-20,,,,MILD
MAXIS-08,AE,MAXIS-08-408-001,44,ECCYMOSIS LEFT KNEE,Ecchymosis,,,Ecchymosis,,,,,,,,,,N,DOSE NOT CHANGED,POSSIBLY RELATED,RECOVERED/RESOLVED,,,,1,,,999,2009-08-21,2009-08-21,2009-08-27,,,,MILD
MAXIS-08,AE,MAXIS-08-408-001,45,DIZZINESS,,,,Dizziness,,,,,,,,,,N,DOSE NOT CHANGED,NOT RELATED,RECOVERED/RESOLVED,,,,1,,,999,2009-07-30,2009-07-30,2009-07-31,,,,MILD
MAXIS-08,AE,MAXIS-08-408-001,46,DIZZINESS,,,,Dizziness,,,,,,,,,,N,DOSE NOT CHANGED,POSSIBLY RELATED,RECOVERED/RESOLVED,,,,1,,,999,2009-11-04,2009-11-04,2009-11-06,,,,MILD
MAXIS-08,AE,MAXIS-08-408-001,47,DIARRHEA,,,,Diarrhoea,,,,,,,,,,N,DOSE NOT CHANGED,NOT RELATED,RECOVERED/RESOLVED,,,,1,,,999,2009-09-10,2009-09-10,2009-09-18,,,,MILD
MAXIS-08,AE,MAXIS-08-408-001,48,DECREASED PERIANAL SENSATION,Sensation loss,,,Sensory loss,,,,,,,,,,N,DOSE NOT CHANGED,POSSIBLY RELATED,NOT RECOVERED/NOT RESOLVED,,,,1,,,999,2009-12-23,2009-12-23,,,,,MILD
MAXIS-08,AE,MAXIS-08-408-001,49,CREATININE ELEVATED,Creatinine increased,,,Blood creatinine increased,,,,,,,,,,Y,DOSE NOT CHANGED,NOT RELATED,RECOVERED/RESOLVED,,,,2,,,999,2009-08-04,2009-08-04,2009-08-05,,,,MODERATE
MAXIS-08,AE,MAXIS-08-408-001,50,COLD CHILLS,Chills,,,Chills,,,,,,,,,,N,DOSE NOT CHANGED,UNLIKELY RELATED,NOT RECOVERED/NOT RESOLVED,,,,1,,,999,2009-07-25,2009-07-25,,,,,MILD
MAXIS-08,AE,MAXIS-08-408-001,51,CHEST HEAVINESS,,,,Chest discomfort,,,,,,,,,,N,DOSE NOT CHANGED,UNLIKELY RELATED,RECOVERED/RESOLVED,,,,1,,,999,2009-07-30,2009-07-30,2009-07-31,,,,MILD
MAXIS-08,AE,MAXIS-08-408-001,52,PERIPHERAL NEUROPATHY BILATERAL FINGERS AND TOES,Peripheral neuropathy NOS,,,Neuropathy peripheral,,,,,,,,,,N,DRUG WITHDRAWN,PROBABLY RELATED,NOT RECOVERED/NOT RESOLVED,,,,3,,,999,2010-02-08,2010-02-08,,,,,SEVERE
MAXIS-08,AE,MAXIS-08-408-001,53,PERIPHERAL NEUROPATHY BILATERAL FINGERS AND TOES,,,,NEUROPATHY PERIPHERAL,17827.0,PERIPHERAL NEUROPATHIES NEC,2545.0,,1143.0,NERVOUS SYSTEM DISORDERS,948.0,NERVOUS SYSTEM DISORDERS,948.0,N,DRUG WITHDRAWN,PROBABLY RELATED,NOT RECOVERED/NOT RESOLVED,,,,3,,,999,2010-02-08,2010-02-08,,,,,SEVERE
MAXIS-08,AE,MAXIS-08-408-001,54,PERIPHERAL PARESTHESIA,Paresthesia,,,Paraesthesia,,,,,,,,,,N,DOSE NOT CHANGED,POSSIBLY RELATED,RECOVERED/RESOLVED,,,,1,,,999,2009-09-03,2009-09-03,2009-09-24,,,,MILD
MAXIS-08,AE,MAXIS-08-408-001,55,RIGHT INTRACLAVICULAR AREA PAIN,Musculoskeletal pain,,,Musculoskeletal pain,,,,,,,,,,N,DOSE NOT CHANGED,NOT RELATED,RECOVERED/RESOLVED,,,,1,,,999,2009-08-27,2009-08-27,2009-09-03,,,,MILD
MAXIS-08,AE,MAXIS-08-408-001,56,GENERALIZED HEMORRHAGIC SKIN RASH,,SKIN RASH,28201.0,RASH,17007.0,"RASHES, ERUPTIONS AND EXANTHEMS NEC",2846.0,,1053.0,SKIN AND SUBCUTANEOUS TISSUE DISORDERS,954.0,SKIN AND SUBCUTANEOUS TISSUE DISORDERS,954.0,N,DOSE NOT CHANGED,POSSIBLY RELATED,NOT RECOVERED/NOT RESOLVED,,,,1,,,999,2009-12-27,2009-12-27,,,,,MILD
MAXIS-08,AE,MAXIS-08-408-001,57,DIZZINESS,,,,DIZZINESS,13503.0,NEUROLOGICAL SIGNS AND SYMPTOMS NEC,2533.0,,1115.0,NERVOUS SYSTEM DISORDERS,948.0,NERVOUS SYSTEM DISORDERS,948.0,N,DOSE NOT CHANGED,NOT RELATED,RECOVERED/RESOLVED,,,,1,,,999,2009-07-30,2009-07-30,2009-07-31,,,,MILD
MAXIS-08,AE,MAXIS-08-408-001,58,PETECHIAL SKIN RASH RIGHT THIGH,Petechial rash,,,Petechiae,,,,,,,,,,N,DOSE NOT CHANGED,POSSIBLY RELATED,RECOVERED/RESOLVED,,,,1,,,999,2009-08-27,2009-08-27,2009-09-03,,,,MILD
MAXIS-08,AE,MAXIS-08-408-001,59,WEAKNESS,,,,Asthenia,,,,,,,,,,N,DOSE NOT CHANGED,NOT RELATED,RECOVERED/RESOLVED,,,,1,,,999,2009-08-12,2009-08-12,2009-08-14,,,,MILD
MAXIS-08,AE,MAXIS-08-408-001,60,RIGHT MOLAR TOOTH EXTRACTION,Tooth extraction,,,Tooth extraction,,,,,,,,,,N,DOSE NOT CHANGED,NOT RELATED,RECOVERED/RESOLVED,,,,2,,,999,2009-10-15,2009-10-15,2009-10-15,,,,MODERATE
MAXIS-08,AE,MAXIS-08-408-001,61,RIGHT JAW PAIN,Jaw pain,,,Pain in jaw,,,,,,,,,,N,DOSE NOT CHANGED,NOT RELATED,RECOVERED/RESOLVED,,,,2,,,999,2009-07-24,2009-07-24,2009-07-24,,,,MODERATE
MAXIS-08,AE,MAXIS-08-408-001,62,RIGHT SIDED CHEST PAIN,Chest pain,,,Chest pain,,,,,,,,,,Y,DOSE NOT CHANGED,NOT RELATED,RECOVERED/RESOLVED,,,,2,,,999,2009-08-04,2009-08-04,2009-08-05,,,,MODERATE
MAXIS-08,AE,MAXIS-08-408-001,63,TINGLING HANDS/FEET,Tingling feet/hands,,,Paraesthesia,,,,,,,,,,N,DOSE NOT CHANGED,PROBABLY RELATED,RECOVERED/RESOLVED,,,,1,,,999,2009-11-20,2009-11-20,2009-11-20,,,,MILD
MAXIS-08,AE,MAXIS-08-408-001,64,UPSET STOMACH,,,,Abdominal discomfort,,,,,,,,,,N,DOSE NOT CHANGED,UNLIKELY RELATED,RECOVERED/RESOLVED,,,,1,,,999,2009-11-13,2009-11-13,2009-11-13,,,,MILD
MAXIS-08,AE,MAXIS-08-408-001,1,ANEMIA,,,,Anaemia,,,,,,,,,,Y,DOSE NOT CHANGED,POSSIBLY RELATED,NOT RECOVERED/NOT RESOLVED,,,,3,,,999,2009-09-13,2009-09-13,,,,,SEVERE
MAXIS-08,AE,MAXIS-08-408-001,2,BODY PAINS,,GENERAL BODY PAIN,48407.0,PAIN,16657.0,PAIN AND DISCOMFORT NEC,2241.0,,1195.0,GENERAL DISORDERS AND ADMINISTRATION SITE CONDITIONS,963.0,GENERAL DISORDERS AND ADMINISTRATION SITE CONDITIONS,963.0,Y,DOSE NOT CHANGED,NOT RELATED,NOT RECOVERED/NOT RESOLVED,,,,3,,,999,2009-09-07,2009-09-07,,,,,SEVERE
MAXIS-08,AE,MAXIS-08-408-001,3,INSOMNIA,,,,INSOMNIA,12685.0,DISTURBANCES IN INITIATING AND MAINTAINING SLEEP,2759.0,,1275.0,PSYCHIATRIC DISORDERS,969.0,PSYCHIATRIC DISORDERS,969.0,N,DOSE NOT CHANGED,UNLIKELY RELATED,RECOVERED/RESOLVED,,,,1,,,999,2009-09-03,2009-09-03,2009-09-04,,,,MILD
MAXIS-08,AE,MAXIS-08-408-001,4,NARCOTIC OVERDOSE,,DRUG OVERDOSE,1520866.0,OVERDOSE,16644.0,OVERDOSES,1334.0,,1299.0,"INJURY, POISONING AND PROCEDURAL COMPLICATIONS",959.0,"INJURY, POISONING AND PROCEDURAL COMPLICATIONS",959.0,Y,DOSE NOT CHANGED,NOT RELATED,NOT RECOVERED/NOT RESOLVED,,,,3,,,999,2009-09-07,2009-09-07,,,,,SEVERE
MAXIS-08,AE,MAXIS-08-408-001,5,ANEMIA,,ANEMIA,20088.0,ANAEMIA,16270.0,ANAEMIAS NEC,1437.0,,971.0,BLOOD AND LYMPHATIC SYSTEM DISORDERS,947.0,BLOOD AND LYMPHATIC SYSTEM DISORDERS,947.0,Y,DOSE NOT CHANGED,POSSIBLY RELATED,NOT RECOVERED/NOT RESOLVED,,,,3,,,999,2009-09-13,2009-09-13,,,,,SEVERE
MAXIS-08,AE,MAXIS-08-408-001,6,LEUCOPENIA,,LEUCOPENIA,21571.0,LEUKOPENIA,16591.0,LEUKOPENIAS NEC,2436.0,,1182.0,BLOOD AND LYMPHATIC SYSTEM DISORDERS,947.0,BLOOD AND LYMPHATIC SYSTEM DISORDERS,947.0,Y,DOSE NOT CHANGED,POSSIBLY RELATED,RECOVERED/RESOLVED,,,,2,,,999,2009-09-07,2009-09-07,2009-09-11,,,,MODERATE
MAXIS-08,AE,MAXIS-08-408-001,7,CONFUSION,,CONFUSION,39706.0,CONFUSIONAL STATE,9703.0,CONFUSION AND DISORIENTATION,1753.0,,1049.0,PSYCHIATRIC DISORDERS,969.0,PSYCHIATRIC DISORDERS,969.0,Y,DOSE NOT CHANGED,NOT RELATED,NOT RECOVERED/NOT RESOLVED,,,,4,,,999,2009-09-07,2009-09-07,,,,,LIFE THREATENING
MAXIS-08,AE,MAXIS-08-408-001,8,DISEASE PROGRESSION,,,,DISEASE PROGRESSION,18048.0,GENERAL SIGNS AND SYMPTOMS NEC,2237.0,,1195.0,GENERAL DISORDERS AND ADMINISTRATION SITE CONDITIONS,963.0,GENERAL DISORDERS AND ADMINISTRATION SITE CONDITIONS,963.0,Y,DOSE NOT CHANGED,NOT RELATED,FATAL,,,,5,,,999,2009-09-27,2009-09-27,2009-09-27,,,,FATAL
MAXIS-08,AE,MAXIS-08-408-001,9,NARCOTIC OVERDOSE,Drug overdose,,,Overdose,,,,,,,,,,Y,DOSE NOT CHANGED,NOT RELATED,NOT RECOVERED/NOT RESOLVED,,,,3,,,999,2009-09-07,2009-09-07,,,,,SEVERE
MAXIS-08,AE,MAXIS-08-408-001,10,INSOMNIA,,,,Insomnia,,,,,,,,,,N,DOSE NOT CHANGED,UNLIKELY RELATED,RECOVERED/RESOLVED,,,,1,,,999,2009-09-03,2009-09-03,2009-09-04,,,,MILD
MAXIS-08,AE,MAXIS-08-408-001,11,HYPOKALEMIA,,,,Hypokalaemia,,,,,,,,,,Y,DOSE NOT CHANGED,NOT RELATED,RECOVERED/RESOLVED,,,,3,,,999,2009-09-08,2009-09-08,2009-09-10,,,,SEVERE
MAXIS-08,AE,MAXIS-08-408-001,12,DISEASE PROGRESSION,,,,Disease progression,,,,,,,,,,Y,DOSE NOT CHANGED,NOT RELATED,FATAL,,,,5,,,999,2009-09-27,2009-09-27,2009-09-27,,,,FATAL
MAXIS-08,AE,MAXIS-08-408-001,13,CONFUSION,,,,Confusional state,,,,,,,,,,Y,DOSE NOT CHANGED,NOT RELATED,NOT RECOVERED/NOT RESOLVED,,,,4,,,999,2009-09-07,2009-09-07,,,,,LIFE THREATENING
MAXIS-08,AE,MAXIS-08-408-001,14,BODY PAINS,General body pain,,,Pain,,,,,,,,,,Y,DOSE NOT CHANGED,NOT RELATED,NOT RECOVERED/NOT RESOLVED,,,,3,,,999,2009-09-07,2009-09-07,,,,,SEVERE
MAXIS-08,AE,MAXIS-08-408-001,15,HYPOKALEMIA,,HYPOKALEMIA,39238.0,HYPOKALAEMIA,3357.0,POTASSIUM IMBALANCE,2244.0,,1151.0,METABOLISM AND NUTRITION DISORDERS,957.0,METABOLISM AND NUTRITION DISORDERS,957.0,Y,DOSE NOT CHANGED,NOT RELATED,RECOVERED/RESOLVED,,,,3,,,999,2009-09-08,2009-09-08,2009-09-10,,,,SEVERE
MAXIS-08,AE,MAXIS-08-408-001,16,LEUCOPENIA,,,,Leukopenia,,,,,,,,,,Y,DOSE NOT CHANGED,POSSIBLY RELATED,RECOVERED/RESOLVED,,,,2,,,999,2009-09-07,2009-09-07,2009-09-11,,,,MODERATE
MAXIS-08,AE,MAXIS-08-408-001,1,ANEMIA,,ANEMIA,20088.0,ANAEMIA,16270.0,ANAEMIAS NEC,1437.0,,971.0,BLOOD AND LYMPHATIC SYSTEM DISORDERS,947.0,BLOOD AND LYMPHATIC SYSTEM DISORDERS,947.0,N,DOSE NOT CHANGED,NOT RELATED,RECOVERED/RESOLVED,,,,3,,,999,2009-10-01,2009-10-01,2009-10-02,,,,SEVERE
MAXIS-08,AE,MAXIS-08-408-001,2,SHORTNESS OF BREATH,,SHORTNESS OF BREATH,22271.0,DYSPNOEA,15703.0,BREATHING ABNORMALITIES,2130.0,,1260.0,"RESPIRATORY, THORACIC AND MEDIASTINAL DISORDERS",951.0,"RESPIRATORY, THORACIC AND MEDIASTINAL DISORDERS",951.0,Y,DOSE NOT CHANGED,NOT RELATED,RECOVERED/RESOLVED,,,,1,,,999,2009-10-12,2009-10-12,2009-10-13,,,,MILD
MAXIS-08,AE,MAXIS-08-408-001,3,INTERMITTENT NAUSEA,,,,NAUSEA,3478.0,NAUSEA AND VOMITING SYMPTOMS,2916.0,,1137.0,GASTROINTESTINAL DISORDERS,952.0,GASTROINTESTINAL DISORDERS,952.0,N,DOSE NOT CHANGED,NOT RELATED,NOT RECOVERED/NOT RESOLVED,,,,1,,,999,2009-10-07,2009-10-07,,,,,MILD
MAXIS-08,AE,MAXIS-08-408-001,4,INTERMITTENT FATIGUE,,,,FATIGUE,3246.0,ASTHENIC CONDITIONS,2228.0,,1195.0,GENERAL DISORDERS AND ADMINISTRATION SITE CONDITIONS,963.0,GENERAL DISORDERS AND ADMINISTRATION SITE CONDITIONS,963.0,N,DOSE NOT CHANGED,NOT RELATED,NOT RECOVERED/NOT RESOLVED,,,,1,,,999,2009-10-01,2009-10-01,,,,,MILD
MAXIS-08,AE,MAXIS-08-408-001,5,URINARY TRACT INFECTION,,,,Urinary tract infection,,,,,,,,,,N,DOSE NOT CHANGED,UNLIKELY RELATED,NOT RECOVERED/NOT RESOLVED,,,,2,,,999,2009-10-13,2009-10-13,,,,,MODERATE
MAXIS-08,AE,MAXIS-08-408-001,6,PLEURITIC CHEST PAIN,Pleuritic pain,,,Pleuritic pain,,,,,,,,,,Y,DOSE NOT CHANGED,NOT RELATED,RECOVERED/RESOLVED,,,,1,,,999,2009-10-12,2009-10-12,2009-10-13,,,,MILD
MAXIS-08,AE,MAXIS-08-408-001,7,INTERMITTENT NAUSEA,Nausea,,,Nausea,,,,,,,,,,N,DOSE NOT CHANGED,NOT RELATED,NOT RECOVERED/NOT RESOLVED,,,,1,,,999,2009-10-07,2009-10-07,,,,,MILD
MAXIS-08,AE,MAXIS-08-408-001,8,INTERMITTENT FATIGUE,Fatigue,,,Fatigue,,,,,,,,,,N,DOSE NOT CHANGED,NOT RELATED,NOT RECOVERED/NOT RESOLVED,,,,1,,,999,2009-10-01,2009-10-01,,,,,MILD
MAXIS-08,AE,MAXIS-08-408-001,9,GASTRIC REFLUX,Gastroesophageal reflux,,,Gastrooesophageal reflux disease,,,,,,,,,,N,DOSE NOT CHANGED,NOT RELATED,RECOVERED/RESOLVED,,,,1,,,999,2009-10-27,2009-10-27,2009-10-27,,,,MILD
MAXIS-08,AE,MAXIS-08-408-001,10,DIARRHEA,,,,Diarrhoea,,,,,,,,,,N,DOSE NOT CHANGED,POSSIBLY RELATED,RECOVERED/RESOLVED,,,,1,,,999,2009-10-09,2009-10-09,2009-10-13,,,,MILD
MAXIS-08,AE,MAXIS-08-408-001,11,CENTRAL NERVOUS SYSTEM INVOLVEMENT,Metastases to brain,,,Metastases to central nervous system,,,,,,,,,,Y,DRUG WITHDRAWN,NOT RELATED,RECOVERED/RESOLVED,,,,3,,,999,2009-10-23,2009-10-23,2009-10-28,,,,SEVERE
MAXIS-08,AE,MAXIS-08-408-001,12,SHORTNESS OF BREATH,,,,Dyspnoea,,,,,,,,,,Y,DOSE NOT CHANGED,NOT RELATED,RECOVERED/RESOLVED,,,,1,,,999,2009-10-12,2009-10-12,2009-10-13,,,,MILD
MAXIS-08,AE,MAXIS-08-408-001,13,ANEMIA,,,,Anaemia,,,,,,,,,,N,DOSE NOT CHANGED,NOT RELATED,RECOVERED/RESOLVED,,,,2,,,999,2009-10-14,2009-10-14,2009-10-28,,,,MODERATE
MAXIS-08,AE,MAXIS-08-408-001,14,ANEMIA,,,,Anaemia,,,,,,,,,,N,DOSE NOT CHANGED,NOT RELATED,RECOVERED/RESOLVED,,,,3,,,999,2009-10-01,2009-10-01,2009-10-02,,,,SEVERE
MAXIS-08,AE,MAXIS-08-408-001,15,CENTRAL NERVOUS SYSTEM INVOLVEMENT,,METASTASES TO BRAIN,23314.0,METASTASES TO CENTRAL NERVOUS SYSTEM,15577.0,METASTASES TO SPECIFIED SITES,2626.0,,1102.0,"NEOPLASMS BENIGN, MALIGNANT AND UNSPECIFIED (INCL CYSTS AND POLYPS)",960.0,"NEOPLASMS BENIGN, MALIGNANT AND UNSPECIFIED (INCL CYSTS AND POLYPS)",960.0,Y,DRUG WITHDRAWN,NOT RELATED,RECOVERED/RESOLVED,,,,3,,,999,2009-10-23,2009-10-23,2009-10-28,,,,SEVERE
MAXIS-08,AE,MAXIS-08-408-001,16,URINARY TRACT INFECTION,,,,URINARY TRACT INFECTION,16805.0,URINARY TRACT INFECTIONS,1979.0,,1082.0,INFECTIONS AND INFESTATIONS,958.0,INFECTIONS AND INFESTATIONS,958.0,N,DOSE NOT CHANGED,UNLIKELY RELATED,NOT RECOVERED/NOT RESOLVED,,,,2,,,999,2009-10-13,2009-10-13,,,,,MODERATE
MAXIS-08,AE,MAXIS-08-408-001,17,DIARRHEA,,DIARRHEA,20541.0,DIARRHOEA,16440.0,DIARRHOEA (EXCL INFECTIVE),1914.0,,1228.0,GASTROINTESTINAL DISORDERS,952.0,GASTROINTESTINAL DISORDERS,952.0,N,DOSE NOT CHANGED,POSSIBLY RELATED,RECOVERED/RESOLVED,,,,1,,,999,2009-10-09,2009-10-09,2009-10-13,,,,MILD
MAXIS-08,AE,MAXIS-08-408-001,18,ANEMIA,,ANEMIA,20088.0,ANAEMIA,16270.0,ANAEMIAS NEC,1437.0,,971.0,BLOOD AND LYMPHATIC SYSTEM DISORDERS,947.0,BLOOD AND LYMPHATIC SYSTEM DISORDERS,947.0,N,DOSE NOT CHANGED,NOT RELATED,RECOVERED/RESOLVED,,,,2,,,999,2009-10-14,2009-10-14,2009-10-28,,,,MODERATE
MAXIS-08,AE,MAXIS-08-408-001,19,GASTRIC REFLUX,,,,DUODENOGASTRIC REFLUX,16738.0,GASTROINTESTINAL ATONIC AND HYPOMOTILITY DISORDERS NEC,1346.0,,1228.0,GASTROINTESTINAL DISORDERS,952.0,GASTROINTESTINAL DISORDERS,952.0,N,DOSE NOT CHANGED,NOT RELATED,RECOVERED/RESOLVED,,,,1,,,999,2009-10-27,2009-10-27,2009-10-27,,,,MILD
MAXIS-08,AE,MAXIS-08-408-001,20,PLEURITIC CHEST PAIN,,PLEURAL PAIN,38905.0,PLEURITIC PAIN,4093.0,LOWER RESPIRATORY TRACT SIGNS AND SYMPTOMS,2133.0,,1260.0,"RESPIRATORY, THORACIC AND MEDIASTINAL DISORDERS",951.0,"RESPIRATORY, THORACIC AND MEDIASTINAL DISORDERS",951.0,Y,DOSE NOT CHANGED,NOT RELATED,RECOVERED/RESOLVED,,,,1,,,999,2009-10-12,2009-10-12,2009-10-13,,,,MILD
MAXIS-08,AE,MAXIS-08-408-001,21,ANXIETY,,,,ANXIETY,14721.0,ANXIETY SYMPTOMS,1529.0,,1027.0,PSYCHIATRIC DISORDERS,969.0,PSYCHIATRIC DISORDERS,969.0,N,DOSE NOT CHANGED,UNLIKELY RELATED,RECOVERED/RESOLVED,,,,2,,,999,2009-10-23,2009-10-23,2009-10-27,,,,MODERATE
MAXIS-08,AE,MAXIS-08-408-001,22,ANXIETY,,,,Anxiety,,,,,,,,,,N,DOSE NOT CHANGED,UNLIKELY RELATED,RECOVERED/RESOLVED,,,,2,,,999,2009-10-23,2009-10-23,2009-10-27,,,,MODERATE
MAXIS-08,AE,MAXIS-08-408-001,1,RECTAL PAIN,,,,Proctalgia,,,,,,,,,,Y,DOSE NOT CHANGED,NOT RELATED,RECOVERED/RESOLVED,,,,3,,,999,2010-01-25,2010-01-25,2010-01-29,,,,SEVERE
MAXIS-08,AE,MAXIS-08-408-001,2,RECTAL PAIN,,,,Proctalgia,,,,,,,,,,N,DOSE NOT CHANGED,NOT RELATED,RECOVERED/RESOLVED,,,,3,,,999,2009-11-18,2009-11-18,2009-11-18,,,,SEVERE
MAXIS-08,AE,MAXIS-08-408-001,3,RECTAL PAIN,,,,Proctalgia,,,,,,,,,,N,DOSE NOT CHANGED,NOT RELATED,RECOVERED/RESOLVED,,,,1,,,999,2009-11-17,2009-11-17,2009-11-18,,,,MILD
MAXIS-08,AE,MAXIS-08-408-001,4,PARESTHESIA (FEET/HAND),Paresthesia,,,Paraesthesia,,,,,,,,,,N,DOSE NOT CHANGED,POSSIBLY RELATED,NOT RECOVERED/NOT RESOLVED,,,,1,,,999,2009-12-01,2009-12-01,,,,,MILD
MAXIS-08,AE,MAXIS-08-408-001,5,LEFT ARM IV SITE PAIN,Infusion site pain,,,Infusion site pain,,,,,,,,,,N,DRUG INTERRUPTED,UNLIKELY RELATED,RECOVERED/RESOLVED,,,,1,,,999,2009-11-10,2009-11-10,2009-11-11,,,,MILD
MAXIS-08,AE,MAXIS-08-408-001,6,FUNGAL INFECTION/VAGINAL AREA,Vaginal infection,,,Vaginal infection,,,,,,,,,,N,DOSE NOT CHANGED,NOT RELATED,NOT RECOVERED/NOT RESOLVED,,,,2,,,999,2009-12-08,2009-12-08,,,,,MODERATE
MAXIS-08,AE,MAXIS-08-408-001,7,HEADACHE,,,,Headache,,,,,,,,,,N,DOSE NOT CHANGED,UNLIKELY RELATED,RECOVERED/RESOLVED,,,,1,,,999,2009-11-11,2009-11-11,2009-11-11,,,,MILD
MAXIS-08,AE,MAXIS-08-408-001,8,GROSS HEMATURIA,Hematuria,,,Haematuria,,,,,,,,,,N,DOSE NOT CHANGED,NOT RELATED,RECOVERED/RESOLVED,,,,2,,,999,2010-01-05,2010-01-05,2010-01-06,,,,MODERATE
MAXIS-08,AE,MAXIS-08-408-001,9,DYSURIA,,,,Dysuria,,,,,,,,,,N,DOSE NOT CHANGED,NOT RELATED,RECOVERED/RESOLVED,,,,1,,,999,2009-11-02,2009-11-02,2009-11-03,,,,MILD
MAXIS-08,AE,MAXIS-08-408-001,10,DIARRHEA,,,,Diarrhoea,,,,,,,,,,N,DOSE NOT CHANGED,POSSIBLY RELATED,RECOVERED/RESOLVED,,,,2,,,999,2009-11-10,2009-11-10,2009-11-17,,,,MODERATE
MAXIS-08,AE,MAXIS-08-408-001,11,COLD SENSITIVITY IN HANDS,Cold intolerance,,,Temperature intolerance,,,,,,,,,,N,DOSE NOT CHANGED,PROBABLY RELATED,NOT RECOVERED/NOT RESOLVED,,,,1,,,999,2009-12-01,2009-12-01,,,,,MILD
MAXIS-08,AE,MAXIS-08-408-001,12,BACTERIAL INFECTION (URINARY TRACT INFECTION),Urinary tract infection bacterial,,,Urinary tract infection bacterial,,,,,,,,,,N,DOSE NOT CHANGED,NOT RELATED,RECOVERED/RESOLVED,,,,2,,,999,2009-11-03,2009-11-03,2009-11-17,,,,MODERATE
MAXIS-08,AE,MAXIS-08-408-001,13,RIGHT ABD QUADRANT DISCOMFORT,Abdominal discomfort,,,Abdominal discomfort,,,,,,,,,,N,DOSE NOT CHANGED,NOT RELATED,RECOVERED/RESOLVED,,,,1,,,999,2009-12-29,2009-12-29,2009-12-30,,,,MILD
MAXIS-08,AE,MAXIS-08-408-001,14,INTERMITTENT FATIGUE,Fatigue,,,Fatigue,,,,,,,,,,N,DOSE NOT CHANGED,POSSIBLY RELATED,NOT RECOVERED/NOT RESOLVED,,,,1,,,999,2009-11-03,2009-11-03,,,,,MILD
MAXIS-08,AE,MAXIS-08-408-001,15,RIGHT LEG PAIN,Leg pain,,,Pain in extremity,,,,,,,,,,N,DOSE NOT CHANGED,NOT RELATED,RECOVERED/RESOLVED,,,,1,,,999,2009-11-04,2009-11-04,2009-11-11,,,,MILD
MAXIS-08,AE,MAXIS-08-408-001,16,VAGINAL ITCHING,,,,Vulvovaginal pruritus,,,,,,,,,,N,DOSE NOT CHANGED,POSSIBLY RELATED,NOT RECOVERED/NOT RESOLVED,,,,1,,,999,2009-12-09,2009-12-09,,,,,MILD
MAXIS-08,AE,MAXIS-08-408-001,17,TACHYCARDIA,,,,Tachycardia,,,,,,,,,,N,DOSE NOT CHANGED,NOT RELATED,NOT RECOVERED/NOT RESOLVED,,,,1,,,999,2010-01-25,2010-01-25,,,,,MILD
MAXIS-08,AE,MAXIS-08-408-001,18,VOIDED QUARTER SIZE BLOOD CLOT,,HEMATURIA,39458.0,HAEMATURIA,11280.0,URINARY ABNORMALITIES,2199.0,,1138.0,RENAL AND URINARY DISORDERS,953.0,RENAL AND URINARY DISORDERS,953.0,N,DOSE NOT CHANGED,NOT RELATED,RECOVERED/RESOLVED,,,,2,,,999,2009-10-27,2009-10-27,2009-10-28,,,,MODERATE
MAXIS-08,AE,MAXIS-08-408-001,19,RECTAL PAIN,,RECTAL PAIN,38724.0,PROCTALGIA,3585.0,ANAL AND RECTAL PAINS,1917.0,,1126.0,GASTROINTESTINAL DISORDERS,952.0,GASTROINTESTINAL DISORDERS,952.0,N,DOSE NOT CHANGED,NOT RELATED,RECOVERED/RESOLVED,,,,3,,,999,2009-10-28,2009-10-28,2009-10-28,,,,SEVERE
MAXIS-08,AE,MAXIS-08-408-001,20,INTERMITTENT FATIGUE,,,,FATIGUE,3246.0,ASTHENIC CONDITIONS,2228.0,,1195.0,GENERAL DISORDERS AND ADMINISTRATION SITE CONDITIONS,963.0,GENERAL DISORDERS AND ADMINISTRATION SITE CONDITIONS,963.0,N,DOSE NOT CHANGED,POSSIBLY RELATED,NOT RECOVERED/NOT RESOLVED,,,,1,,,999,2009-11-03,2009-11-03,,,,,MILD
MAXIS-08,AE,MAXIS-08-408-001,21,DYSURIA,,,,DYSURIA,3203.0,BLADDER AND URETHRAL SYMPTOMS,2200.0,,1138.0,RENAL AND URINARY DISORDERS,953.0,RENAL AND URINARY DISORDERS,953.0,N,DOSE NOT CHANGED,NOT RELATED,RECOVERED/RESOLVED,,,,1,,,999,2009-11-02,2009-11-02,2009-11-03,,,,MILD
MAXIS-08,AE,MAXIS-08-408-001,22,BACTERIAL INFECTION (URINARY TRACT INFECTION),,UTI,36955.0,URINARY TRACT INFECTION,16805.0,URINARY TRACT INFECTIONS,1979.0,,1082.0,INFECTIONS AND INFESTATIONS,958.0,INFECTIONS AND INFESTATIONS,958.0,N,DOSE NOT CHANGED,NOT RELATED,RECOVERED/RESOLVED,,,,2,,,999,2009-11-03,2009-11-03,2009-11-17,,,,MODERATE
MAXIS-08,AE,MAXIS-08-408-001,23,RIGHT LEG PAIN,,LEG PAIN,37161.0,PAIN IN EXTREMITY,15624.0,MUSCULOSKELETAL AND CONNECTIVE TISSUE PAIN AND DISCOMFORT,1982317.0,,988.0,MUSCULOSKELETAL AND CONNECTIVE TISSUE DISORDERS,955.0,MUSCULOSKELETAL AND CONNECTIVE TISSUE DISORDERS,955.0,N,DOSE NOT CHANGED,NOT RELATED,RECOVERED/RESOLVED,,,,1,,,999,2009-11-04,2009-11-04,2009-11-11,,,,MILD
MAXIS-08,AE,MAXIS-08-408-001,24,LEFT ARM IV SITE PAIN,,,,INFUSION SITE PAIN,13152.0,INFUSION SITE REACTIONS,1982313.0,,1297.0,GENERAL DISORDERS AND ADMINISTRATION SITE CONDITIONS,963.0,GENERAL DISORDERS AND ADMINISTRATION SITE CONDITIONS,963.0,N,DRUG INTERRUPTED,UNLIKELY RELATED,RECOVERED/RESOLVED,,,,1,,,999,2009-11-10,2009-11-10,2009-11-11,,,,MILD
MAXIS-08,AE,MAXIS-08-408-001,25,DIARRHEA,,DIARRHEA,20541.0,DIARRHOEA,16440.0,DIARRHOEA (EXCL INFECTIVE),1914.0,,1228.0,GASTROINTESTINAL DISORDERS,952.0,GASTROINTESTINAL DISORDERS,952.0,N,DOSE NOT CHANGED,POSSIBLY RELATED,RECOVERED/RESOLVED,,,,2,,,999,2009-11-10,2009-11-10,2009-11-17,,,,MODERATE
MAXIS-08,AE,MAXIS-08-408-001,26,RECTAL PAIN,,RECTAL PAIN,38724.0,PROCTALGIA,3585.0,ANAL AND RECTAL PAINS,1917.0,,1126.0,GASTROINTESTINAL DISORDERS,952.0,GASTROINTESTINAL DISORDERS,952.0,N,DOSE NOT CHANGED,NOT RELATED,RECOVERED/RESOLVED,,,,1,,,999,2009-11-17,2009-11-17,2009-11-18,,,,MILD
MAXIS-08,AE,MAXIS-08-408-001,27,RECTAL PAIN,,RECTAL PAIN,38724.0,PROCTALGIA,3585.0,ANAL AND RECTAL PAINS,1917.0,,1126.0,GASTROINTESTINAL DISORDERS,952.0,GASTROINTESTINAL DISORDERS,952.0,N,DOSE NOT CHANGED,NOT RELATED,RECOVERED/RESOLVED,,,,3,,,999,2009-11-18,2009-11-18,2009-11-18,,,,SEVERE
MAXIS-08,AE,MAXIS-08-408-001,28,PARESTHESIA (FEET/HAND),,PARESTHESIA,39002.0,PARAESTHESIA,12682.0,PARAESTHESIAS AND DYSAESTHESIAS,2534.0,,1115.0,NERVOUS SYSTEM DISORDERS,948.0,NERVOUS SYSTEM DISORDERS,948.0,N,DOSE NOT CHANGED,POSSIBLY RELATED,NOT RECOVERED/NOT RESOLVED,,,,1,,,999,2009-12-01,2009-12-01,,,,,MILD
MAXIS-08,AE,MAXIS-08-408-001,29,SOLE-HYPERKERATOTIC ON THE RIGHT FOOT,Hyperkeratosis,,,Hyperkeratosis,,,,,,,,,,N,DOSE NOT CHANGED,NOT RELATED,NOT RECOVERED/NOT RESOLVED,,,,1,,,999,2009-12-08,2009-12-08,,,,,MILD
MAXIS-08,AE,MAXIS-08-408-001,30,RECTAL PAIN,,RECTAL PAIN,38724.0,PROCTALGIA,3585.0,ANAL AND RECTAL PAINS,1917.0,,1126.0,GASTROINTESTINAL DISORDERS,952.0,GASTROINTESTINAL DISORDERS,952.0,Y,DOSE NOT CHANGED,NOT RELATED,RECOVERED/RESOLVED,,,,3,,,999,2010-01-25,2010-01-25,2010-01-29,,,,SEVERE
MAXIS-08,AE,MAXIS-08-408-001,31,RIGHT ABD QUADRANT DISCOMFORT,,RIGHT UPPER QUADRANT PAIN,38661.0,ABDOMINAL PAIN UPPER,2987.0,GASTROINTESTINAL AND ABDOMINAL PAINS (EXCL ORAL AND THROAT),1942.0,,1137.0,GASTROINTESTINAL DISORDERS,952.0,GASTROINTESTINAL DISORDERS,952.0,N,DOSE NOT CHANGED,NOT RELATED,RECOVERED/RESOLVED,,,,1,,,999,2009-12-29,2009-12-29,2009-12-30,,,,MILD
MAXIS-08,AE,MAXIS-08-408-001,32,SOLE-HYPERKERATOTIC ON THE RIGHT FOOT,,,,HYPERKERATOSIS,3334.0,HYPERKERATOSES,1358.0,,1052.0,SKIN AND SUBCUTANEOUS TISSUE DISORDERS,954.0,SKIN AND SUBCUTANEOUS TISSUE DISORDERS,954.0,N,DOSE NOT CHANGED,NOT RELATED,NOT RECOVERED/NOT RESOLVED,,,,1,,,999,2009-12-08,2009-12-08,,,,,MILD
MAXIS-08,AE,MAXIS-08-408-001,33,HEADACHE,,,,HEADACHE,14964.0,HEADACHES NEC,2516.0,,1111.0,NERVOUS SYSTEM DISORDERS,948.0,NERVOUS SYSTEM DISORDERS,948.0,N,DOSE NOT CHANGED,UNLIKELY RELATED,RECOVERED/RESOLVED,,,,1,,,999,2009-11-11,2009-11-11,2009-11-11,,,,MILD
MAXIS-08,AE,MAXIS-08-408-001,34,COLD SENSITIVITY IN HANDS,,SENSATION OF COLD,29823.0,FEELING COLD,6340.0,FEELINGS AND SENSATIONS NEC,1982319.0,,1195.0,GENERAL DISORDERS AND ADMINISTRATION SITE CONDITIONS,963.0,GENERAL DISORDERS AND ADMINISTRATION SITE CONDITIONS,963.0,N,DOSE NOT CHANGED,PROBABLY RELATED,NOT RECOVERED/NOT RESOLVED,,,,1,,,999,2009-12-01,2009-12-01,,,,,MILD
MAXIS-08,AE,MAXIS-08-408-001,35,FUNGAL INFECTION/VAGINAL AREA,,,,VAGINAL INFECTION,16827.0,FEMALE REPRODUCTIVE TRACT INFECTIONS,1975.0,,1082.0,INFECTIONS AND INFESTATIONS,958.0,INFECTIONS AND INFESTATIONS,958.0,N,DOSE NOT CHANGED,NOT RELATED,NOT RECOVERED/NOT RESOLVED,,,,2,,,999,2009-12-08,2009-12-08,,,,,MODERATE
MAXIS-08,AE,MAXIS-08-408-001,36,VAGINAL ITCHING,,VAGINAL ITCHING,24548.0,VULVOVAGINAL PRURITUS,914487.0,VULVOVAGINAL SIGNS AND SYMPTOMS,2408.0,,1227.0,REPRODUCTIVE SYSTEM AND BREAST DISORDERS,968.0,REPRODUCTIVE SYSTEM AND BREAST DISORDERS,968.0,N,DOSE NOT CHANGED,POSSIBLY RELATED,NOT RECOVERED/NOT RESOLVED,,,,1,,,999,2009-12-09,2009-12-09,,,,,MILD
MAXIS-08,AE,MAXIS-08-408-001,37,URINARY TRACT INFECTION,,UTI,36955.0,URINARY TRACT INFECTION,16805.0,URINARY TRACT INFECTIONS,1979.0,,1082.0,INFECTIONS AND INFESTATIONS,958.0,INFECTIONS AND INFESTATIONS,958.0,N,DOSE NOT CHANGED,NOT RELATED,RECOVERED/RESOLVED,,,,2,,,999,2009-12-29,2009-12-29,2010-01-04,,,,MODERATE
MAXIS-08,AE,MAXIS-08-408-001,38,TACHYCARDIA,,,,TACHYCARDIA,16772.0,RATE AND RHYTHM DISORDERS NEC,1313.0,,998.0,CARDIAC DISORDERS,945.0,CARDIAC DISORDERS,945.0,N,DOSE NOT CHANGED,NOT RELATED,NOT RECOVERED/NOT RESOLVED,,,,1,,,999,2010-01-25,2010-01-25,,,,,MILD
MAXIS-08,AE,MAXIS-08-408-001,39,VOIDED QUARTER SIZE BLOOD CLOT,Clot blood,,,Thrombosis,,,,,,,,,,N,DOSE NOT CHANGED,NOT RELATED,RECOVERED/RESOLVED,,,,2,,,999,2009-10-27,2009-10-27,2009-10-28,,,,MODERATE
MAXIS-08,AE,MAXIS-08-408-001,40,URINARY TRACT INFECTION,,,,Urinary tract infection,,,,,,,,,,N,DOSE NOT CHANGED,NOT RELATED,RECOVERED/RESOLVED,,,,2,,,999,2009-12-29,2009-12-29,2010-01-04,,,,MODERATE
MAXIS-08,AE,MAXIS-08-408-001,41,GROSS HEMATURIA,,HEMATURIA,39458.0,HAEMATURIA,11280.0,URINARY ABNORMALITIES,2199.0,,1138.0,RENAL AND URINARY DISORDERS,953.0,RENAL AND URINARY DISORDERS,953.0,N,DOSE NOT CHANGED,NOT RELATED,RECOVERED/RESOLVED,,,,2,,,999,2010-01-05,2010-01-05,2010-01-06,,,,MODERATE
MAXIS-08,AE,MAXIS-08-408-001,42,RECTAL PAIN,,,,Proctalgia,,,,,,,,,,N,DOSE NOT CHANGED,NOT RELATED,RECOVERED/RESOLVED,,,,3,,,999,2009-10-28,2009-10-28,2009-10-28,,,,SEVERE
MAXIS-08,AE,MAXIS-08-408-001,1,NAUSEA,,,,NAUSEA,3478.0,NAUSEA AND VOMITING SYMPTOMS,2916.0,,1137.0,GASTROINTESTINAL DISORDERS,952.0,GASTROINTESTINAL DISORDERS,952.0,N,DOSE NOT CHANGED,POSSIBLY RELATED,RECOVERED/RESOLVED,,,,1,,,999,2010-03-30,2010-03-30,2010-04-13,,,,MILD
MAXIS-08,AE,MAXIS-08-408-001,2,CONSTIPATION,,,,CONSTIPATION,3143.0,GASTROINTESTINAL ATONIC AND HYPOMOTILITY DISORDERS NEC,1346.0,,1228.0,GASTROINTESTINAL DISORDERS,952.0,GASTROINTESTINAL DISORDERS,952.0,N,DOSE NOT CHANGED,UNLIKELY RELATED,RECOVERED/RESOLVED,,,,1,,,999,2010-03-31,2010-03-31,2010-03-31,,,,MILD
MAXIS-08,AE,MAXIS-08-408-001,3,LEFT MAXILLARY SINUS NUMBNESS,,NUMBNESS,21186.0,HYPOAESTHESIA,3350.0,SENSORY ABNORMALITIES NEC,2536.0,,1115.0,NERVOUS SYSTEM DISORDERS,948.0,NERVOUS SYSTEM DISORDERS,948.0,N,DOSE NOT CHANGED,POSSIBLY RELATED,NOT RECOVERED/NOT RESOLVED,,,,2,,,999,2010-04-05,2010-04-05,,,,,MODERATE
MAXIS-08,AE,MAXIS-08-408-001,4,INTERMITTENT NAUSEA,Nausea,,,Nausea,,,,,,,,,,N,DOSE NOT CHANGED,PROBABLY RELATED,NOT RECOVERED/NOT RESOLVED,,,,1,,,999,2010-04-18,2010-04-18,,,,,MILD
MAXIS-08,AE,MAXIS-08-408-001,5,INTOLERANCE TO COLD IN FINGERS,,COLD INTOLERANCE,24865.0,TEMPERATURE INTOLERANCE,14391.0,FEELINGS AND SENSATIONS NEC,1982319.0,,1195.0,GENERAL DISORDERS AND ADMINISTRATION SITE CONDITIONS,963.0,GENERAL DISORDERS AND ADMINISTRATION SITE CONDITIONS,963.0,N,DOSE NOT CHANGED,POSSIBLY RELATED,NOT RECOVERED/NOT RESOLVED,,,,2,,,999,2010-04-05,2010-04-05,,,,,MODERATE
MAXIS-08,AE,MAXIS-08-408-001,6,ANEMIA,,,,Anaemia,,,,,,,,,,N,DOSE NOT CHANGED,NOT RELATED,RECOVERED/RESOLVED,,,,2,,,999,2010-04-02,2010-04-02,2010-04-06,,,,MODERATE
MAXIS-08,AE,MAXIS-08-408-001,7,ANXIETY,,,,Anxiety,,,,,,,,,,N,DOSE NOT CHANGED,NOT RELATED,NOT RECOVERED/NOT RESOLVED,,,,1,,,999,2010-04-14,2010-04-14,,,,,MILD
MAXIS-08,AE,MAXIS-08-408-001,8,COLD SYMPTOMS (COUGH),Cough,,,Cough,,,,,,,,,,N,DOSE NOT CHANGED,NOT RELATED,NOT RECOVERED/NOT RESOLVED,,,,1,,,999,2010-05-04,2010-05-04,,,,,MILD
MAXIS-08,AE,MAXIS-08-408-001,9,CONSTIPATION,,,,Constipation,,,,,,,,,,N,DOSE NOT CHANGED,UNLIKELY RELATED,RECOVERED/RESOLVED,,,,1,,,999,2010-03-31,2010-03-31,2010-03-31,,,,MILD
MAXIS-08,AE,MAXIS-08-408-001,10,FATIGUE,,,,Fatigue,,,,,,,,,,N,DOSE NOT CHANGED,POSSIBLY RELATED,NOT RECOVERED/NOT RESOLVED,,,,2,,,999,2010-04-17,2010-04-17,,,,,MODERATE
MAXIS-08,AE,MAXIS-08-408-001,11,INTERMITTENT CONSTIPATION,Constipation,,,Constipation,,,,,,,,,,N,DOSE NOT CHANGED,PROBABLY RELATED,NOT RECOVERED/NOT RESOLVED,,,,1,,,999,2010-04-17,2010-04-17,,,,,MILD
MAXIS-08,AE,MAXIS-08-408-001,12,LOWER EXTREMITY COLDNESS,,COLDNESS OF LOWER EXTREMITIES,35686.0,PERIPHERAL COLDNESS,3544.0,"PERIPHERAL VASOCONSTRICTION, NECROSIS AND VASCULAR INSUFFICIENCY",1509.0,,1118.0,VASCULAR DISORDERS,962.0,VASCULAR DISORDERS,962.0,N,DOSE NOT CHANGED,NOT RELATED,NOT RECOVERED/NOT RESOLVED,,,,1,,,999,2010-04-05,2010-04-05,,,,,MILD
MAXIS-08,AE,MAXIS-08-408-001,13,INTOLERANCE TO COLD IN FINGERS,Cold intolerance,,,Temperature intolerance,,,,,,,,,,N,DOSE NOT CHANGED,POSSIBLY RELATED,NOT RECOVERED/NOT RESOLVED,,,,2,,,999,2010-04-05,2010-04-05,,,,,MODERATE
MAXIS-08,AE,MAXIS-08-408-001,14,LEFT MAXILLARY SINUS NUMBNESS,Numbness,,,Hypoaesthesia,,,,,,,,,,N,DOSE NOT CHANGED,POSSIBLY RELATED,NOT RECOVERED/NOT RESOLVED,,,,2,,,999,2010-04-05,2010-04-05,,,,,MODERATE
MAXIS-08,AE,MAXIS-08-408-001,15,LEFT MAXILLARY SINUS PAIN,Sinus pain,,,Sinus headache,,,,,,,,,,N,DOSE NOT CHANGED,POSSIBLY RELATED,NOT RECOVERED/NOT RESOLVED,,,,2,,,999,2010-04-05,2010-04-05,,,,,MODERATE
MAXIS-08,AE,MAXIS-08-408-001,16,LOWER EXTREMITY COLDNESS,Coldness of lower extremities,,,Peripheral coldness,,,,,,,,,,N,DOSE NOT CHANGED,NOT RELATED,NOT RECOVERED/NOT RESOLVED,,,,1,,,999,2010-04-05,2010-04-05,,,,,MILD
MAXIS-08,AE,MAXIS-08-408-001,17,NAUSEA,,,,Nausea,,,,,,,,,,N,DOSE NOT CHANGED,POSSIBLY RELATED,RECOVERED/RESOLVED,,,,1,,,999,2010-03-30,2010-03-30,2010-04-13,,,,MILD
MAXIS-08,AE,MAXIS-08-408-001,18,NEUROPATHY IN FINGERS/FEET,Neuropathy,,,Neuropathy peripheral,,,,,,,,,,N,DOSE NOT CHANGED,PROBABLY RELATED,NOT RECOVERED/NOT RESOLVED,,,,2,,,999,2010-04-28,2010-04-28,,,,,MODERATE
MAXIS-08,AE,MAXIS-08-408-001,19,OCCASSIONAL FACE (EYE) PAIN,Pain eye,,,Eye pain,,,,,,,,,,N,DOSE NOT CHANGED,POSSIBLY RELATED,NOT RECOVERED/NOT RESOLVED,,,,1,,,999,2010-04-17,2010-04-17,,,,,MILD
MAXIS-08,AE,MAXIS-08-408-001,20,ANXIETY,,,,ANXIETY,14721.0,ANXIETY SYMPTOMS,1529.0,,1027.0,PSYCHIATRIC DISORDERS,969.0,PSYCHIATRIC DISORDERS,969.0,N,DOSE NOT CHANGED,NOT RELATED,NOT RECOVERED/NOT RESOLVED,,,,1,,,999,2010-04-14,2010-04-14,,,,,MILD
MAXIS-08,AE,MAXIS-08-408-001,21,TASTE ALTERED,,,,Dysgeusia,,,,,,,,,,N,DOSE NOT CHANGED,POSSIBLY RELATED,RECOVERED/RESOLVED,,,,1,,,999,2010-03-31,2010-03-31,2010-04-02,,,,MILD
MAXIS-08,AE,MAXIS-08-408-001,22,OCCASSIONAL FACE (EYE) PAIN,,PAIN EYE,39091.0,EYE PAIN,3240.0,OCULAR DISORDERS NEC,1499.0,,1018.0,EYE DISORDERS,949.0,EYE DISORDERS,949.0,N,DOSE NOT CHANGED,POSSIBLY RELATED,NOT RECOVERED/NOT RESOLVED,,,,1,,,999,2010-04-17,2010-04-17,,,,,MILD
MAXIS-08,AE,MAXIS-08-408-001,23,TASTE ALTERED,,TASTE ALTERED,24908.0,DYSGEUSIA,12606.0,SENSORY ABNORMALITIES NEC,2536.0,,1115.0,NERVOUS SYSTEM DISORDERS,948.0,NERVOUS SYSTEM DISORDERS,948.0,N,DOSE NOT CHANGED,POSSIBLY RELATED,RECOVERED/RESOLVED,,,,1,,,999,2010-03-31,2010-03-31,2010-04-02,,,,MILD
MAXIS-08,AE,MAXIS-08-408-001,24,INTERMITTENT CONSTIPATION,,,,CONSTIPATION,3143.0,GASTROINTESTINAL ATONIC AND HYPOMOTILITY DISORDERS NEC,1346.0,,1228.0,GASTROINTESTINAL DISORDERS,952.0,GASTROINTESTINAL DISORDERS,952.0,N,DOSE NOT CHANGED,PROBABLY RELATED,NOT RECOVERED/NOT RESOLVED,,,,1,,,999,2010-04-17,2010-04-17,,,,,MILD
MAXIS-08,AE,MAXIS-08-408-001,25,INTERMITTENT NAUSEA,,,,NAUSEA,3478.0,NAUSEA AND VOMITING SYMPTOMS,2916.0,,1137.0,GASTROINTESTINAL DISORDERS,952.0,GASTROINTESTINAL DISORDERS,952.0,N,DOSE NOT CHANGED,PROBABLY RELATED,NOT RECOVERED/NOT RESOLVED,,,,1,,,999,2010-04-18,2010-04-18,,,,,MILD
MAXIS-08,AE,MAXIS-08-408-001,26,FATIGUE,,,,FATIGUE,3246.0,ASTHENIC CONDITIONS,2228.0,,1195.0,GENERAL DISORDERS AND ADMINISTRATION SITE CONDITIONS,963.0,GENERAL DISORDERS AND ADMINISTRATION SITE CONDITIONS,963.0,N,DOSE NOT CHANGED,POSSIBLY RELATED,NOT RECOVERED/NOT RESOLVED,,,,2,,,999,2010-04-17,2010-04-17,,,,,MODERATE
MAXIS-08,AE,MAXIS-08-408-001,27,THROAT MILDLY REDDENED,,RED THROAT,48779.0,PHARYNGEAL ERYTHEMA,14382.0,PHARYNGEAL DISORDERS (EXCL INFECTIONS AND NEOPLASMS),1560.0,,986.0,"RESPIRATORY, THORACIC AND MEDIASTINAL DISORDERS",951.0,"RESPIRATORY, THORACIC AND MEDIASTINAL DISORDERS",951.0,N,DOSE NOT CHANGED,POSSIBLY RELATED,RECOVERED/RESOLVED,,,,1,,,999,2010-04-27,2010-04-27,2010-04-28,,,,MILD
MAXIS-08,AE,MAXIS-08-408-001,28,THROAT MILDLY REDDENED,Red throat,,,Pharyngeal erythema,,,,,,,,,,N,DOSE NOT CHANGED,POSSIBLY RELATED,RECOVERED/RESOLVED,,,,1,,,999,2010-04-27,2010-04-27,2010-04-28,,,,MILD
MAXIS-08,AE,MAXIS-08-408-001,29,ANEMIA,,ANEMIA,20088.0,ANAEMIA,16270.0,ANAEMIAS NEC,1437.0,,971.0,BLOOD AND LYMPHATIC SYSTEM DISORDERS,947.0,BLOOD AND LYMPHATIC SYSTEM DISORDERS,947.0,N,DOSE NOT CHANGED,NOT RELATED,RECOVERED/RESOLVED,,,,2,,,999,2010-04-02,2010-04-02,2010-04-06,,,,MODERATE
MAXIS-08,AE,MAXIS-08-408-001,30,COLD SYMPTOMS (COUGH),,,,COUGH,3897.0,COUGHING AND ASSOCIATED SYMPTOMS,2132.0,,1260.0,"RESPIRATORY, THORACIC AND MEDIASTINAL DISORDERS",951.0,"RESPIRATORY, THORACIC AND MEDIASTINAL DISORDERS",951.0,N,DOSE NOT CHANGED,NOT RELATED,NOT RECOVERED/NOT RESOLVED,,,,1,,,999,2010-05-04,2010-05-04,,,,,MILD
MAXIS-08,AE,MAXIS-08-408-001,31,LEFT MAXILLARY SINUS PAIN,,SINUS PAIN,27836.0,SINUS HEADACHE,3665.0,HEADACHES NEC,2516.0,,1111.0,NERVOUS SYSTEM DISORDERS,948.0,NERVOUS SYSTEM DISORDERS,948.0,N,DOSE NOT CHANGED,POSSIBLY RELATED,NOT RECOVERED/NOT RESOLVED,,,,2,,,999,2010-04-05,2010-04-05,,,,,MODERATE
MAXIS-08,AE,MAXIS-08-408-001,32,NEUROPATHY IN FINGERS/FEET,,,,NEUROPATHY PERIPHERAL,17827.0,PERIPHERAL NEUROPATHIES NEC,2545.0,,1143.0,NERVOUS SYSTEM DISORDERS,948.0,NERVOUS SYSTEM DISORDERS,948.0,N,DOSE NOT CHANGED,PROBABLY RELATED,NOT RECOVERED/NOT RESOLVED,,,,2,,,999,2010-04-28,2010-04-28,,,,,MODERATE
MAXIS-08,AE,MAXIS-08-408-001,1,FACIAL FLUSHING,,FACIAL FLUSHING,36593.0,FLUSHING,3256.0,PERIPHERAL VASCULAR DISORDERS NEC,1699.0,,1068.0,VASCULAR DISORDERS,962.0,VASCULAR DISORDERS,962.0,N,DOSE NOT CHANGED,POSSIBLY RELATED,RECOVERED/RESOLVED,,,,1,,,999,2010-07-14,2010-07-14,2010-08-10,,,,MILD
MAXIS-08,AE,MAXIS-08-408-001,2,FEVER,,FEVER,20707.0,PYREXIA,3601.0,FEBRILE DISORDERS,2220.0,,1140.0,GENERAL DISORDERS AND ADMINISTRATION SITE CONDITIONS,963.0,GENERAL DISORDERS AND ADMINISTRATION SITE CONDITIONS,963.0,N,DOSE NOT CHANGED,POSSIBLY RELATED,RECOVERED/RESOLVED,,,,1,,,999,2010-07-14,2010-07-14,2010-07-14,,,,MILD
MAXIS-08,AE,MAXIS-08-408-001,3,FATIGUE,,,,FATIGUE,3246.0,ASTHENIC CONDITIONS,2228.0,,1195.0,GENERAL DISORDERS AND ADMINISTRATION SITE CONDITIONS,963.0,GENERAL DISORDERS AND ADMINISTRATION SITE CONDITIONS,963.0,N,DOSE NOT CHANGED,POSSIBLY RELATED,RECOVERED/RESOLVED,,,,1,,,999,2010-07-13,2010-07-13,2010-08-10,,,,MILD
MAXIS-08,AE,MAXIS-08-408-001,4,COLD INTOLERANCE TO TOUCH (FINGERS),,COLD INTOLERANCE,24865.0,TEMPERATURE INTOLERANCE,14391.0,FEELINGS AND SENSATIONS NEC,1982319.0,,1195.0,GENERAL DISORDERS AND ADMINISTRATION SITE CONDITIONS,963.0,GENERAL DISORDERS AND ADMINISTRATION SITE CONDITIONS,963.0,N,DOSE NOT CHANGED,POSSIBLY RELATED,RECOVERED/RESOLVED,,,,1,,,999,2010-07-13,2010-07-13,2010-08-10,,,,MILD
MAXIS-08,AE,MAXIS-08-408-001,5,THROMBOCYTOPENIA,,,,THROMBOCYTOPENIA,3723.0,THROMBOCYTOPENIAS,2427.0,,1054.0,BLOOD AND LYMPHATIC SYSTEM DISORDERS,947.0,BLOOD AND LYMPHATIC SYSTEM DISORDERS,947.0,N,DOSE NOT CHANGED,POSSIBLY RELATED,RECOVERED/RESOLVED,,,,2,,,999,2010-07-08,2010-07-08,2010-07-26,,,,MODERATE
MAXIS-08,AE,MAXIS-08-408-001,6,LYMPHOPENIA,,,,LYMPHOPENIA,3424.0,LEUKOPENIAS NEC,2436.0,,1182.0,BLOOD AND LYMPHATIC SYSTEM DISORDERS,947.0,BLOOD AND LYMPHATIC SYSTEM DISORDERS,947.0,N,DOSE NOT CHANGED,POSSIBLY RELATED,NOT RECOVERED/NOT RESOLVED,,,,2,,,999,2010-07-08,2010-07-08,,,,,MODERATE
MAXIS-08,AE,MAXIS-08-408-001,7,COLD INTOLERANCE TO TOUCH (FINGERS),Cold intolerance,,,Temperature intolerance,,,,,,,,,,N,DOSE NOT CHANGED,POSSIBLY RELATED,RECOVERED/RESOLVED,,,,1,,,999,2010-07-13,2010-07-13,2010-08-10,,,,MILD
MAXIS-08,AE,MAXIS-08-408-001,8,THROMBOCYTOPENIA,,,,Thrombocytopenia,,,,,,,,,,N,DOSE NOT CHANGED,POSSIBLY RELATED,RECOVERED/RESOLVED,,,,2,,,999,2010-07-08,2010-07-08,2010-07-26,,,,MODERATE
MAXIS-08,AE,MAXIS-08-408-001,9,ELEVATED AST,,AST INCREASED,20125.0,ASPARTATE AMINOTRANSFERASE INCREASED,3048.0,LIVER FUNCTION ANALYSES,2783.0,,1183.0,INVESTIGATIONS,944.0,INVESTIGATIONS,944.0,N,DOSE NOT CHANGED,POSSIBLY RELATED,RECOVERED/RESOLVED,,,,2,,,999,2010-07-08,2010-07-08,2010-08-10,,,,MODERATE
MAXIS-08,AE,MAXIS-08-408-001,10,ELEVATED AST,AST increased,,,Aspartate aminotransferase increased,,,,,,,,,,N,DOSE NOT CHANGED,POSSIBLY RELATED,RECOVERED/RESOLVED,,,,2,,,999,2010-06-28,2010-06-28,2010-06-29,,,,MODERATE
MAXIS-08,AE,MAXIS-08-408-001,11,ELEVATED AST,AST increased,,,Aspartate aminotransferase increased,,,,,,,,,,N,DOSE NOT CHANGED,POSSIBLY RELATED,RECOVERED/RESOLVED,,,,2,,,999,2010-07-08,2010-07-08,2010-08-10,,,,MODERATE
MAXIS-08,AE,MAXIS-08-408-001,12,FACIAL FLUSHING,,,,Flushing,,,,,,,,,,N,DOSE NOT CHANGED,POSSIBLY RELATED,RECOVERED/RESOLVED,,,,1,,,999,2010-06-30,2010-06-30,2010-07-03,,,,MILD
MAXIS-08,AE,MAXIS-08-408-001,13,FACIAL FLUSHING,,,,Flushing,,,,,,,,,,N,DOSE NOT CHANGED,POSSIBLY RELATED,RECOVERED/RESOLVED,,,,1,,,999,2010-07-14,2010-07-14,2010-08-10,,,,MILD
MAXIS-08,AE,MAXIS-08-408-001,14,FATIGUE,,,,Fatigue,,,,,,,,,,N,DOSE NOT CHANGED,POSSIBLY RELATED,RECOVERED/RESOLVED,,,,1,,,999,2010-06-17,2010-06-17,2010-06-17,,,,MILD
MAXIS-08,AE,MAXIS-08-408-001,15,FATIGUE,,,,Fatigue,,,,,,,,,,N,DOSE NOT CHANGED,POSSIBLY RELATED,RECOVERED/RESOLVED,,,,1,,,999,2010-07-13,2010-07-13,2010-08-10,,,,MILD
MAXIS-08,AE,MAXIS-08-408-001,16,FEVER,,,,Pyrexia,,,,,,,,,,N,DOSE NOT CHANGED,POSSIBLY RELATED,RECOVERED/RESOLVED,,,,2,,,999,2010-06-30,2010-06-30,2010-06-30,,,,MODERATE
MAXIS-08,AE,MAXIS-08-408-001,17,FEVER,,,,Pyrexia,,,,,,,,,,N,DOSE NOT CHANGED,POSSIBLY RELATED,RECOVERED/RESOLVED,,,,1,,,999,2010-07-14,2010-07-14,2010-07-14,,,,MILD
MAXIS-08,AE,MAXIS-08-408-001,18,THROMBOCYTOPENIA,,,,THROMBOCYTOPENIA,3723.0,THROMBOCYTOPENIAS,2427.0,,1054.0,BLOOD AND LYMPHATIC SYSTEM DISORDERS,947.0,BLOOD AND LYMPHATIC SYSTEM DISORDERS,947.0,N,DOSE REDUCED AND INTERRUPTED,POSSIBLY RELATED,RECOVERED/RESOLVED,,,,3,,,999,2010-07-26,2010-07-26,2010-08-10,,,,SEVERE
MAXIS-08,AE,MAXIS-08-408-001,19,FEVER (CHILLS),Fever chills,,,Pyrexia,,,,,,,,,,N,DOSE NOT CHANGED,POSSIBLY RELATED,RECOVERED/RESOLVED,,,,1,,,999,2010-06-30,2010-06-30,2010-06-30,,,,MILD
MAXIS-08,AE,MAXIS-08-408-001,20,INTERMITTENT INSOMNIA,Insomnia,,,Insomnia,,,,,,,,,,N,DOSE NOT CHANGED,NOT RELATED,RECOVERED/RESOLVED,,,,1,,,999,2010-06-30,2010-06-30,2010-08-10,,,,MILD
MAXIS-08,AE,MAXIS-08-408-001,21,LYMPHOPENIA,,,,Lymphopenia,,,,,,,,,,N,DOSE NOT CHANGED,POSSIBLY RELATED,NOT RECOVERED/NOT RESOLVED,,,,2,,,999,2010-07-08,2010-07-08,,,,,MODERATE
MAXIS-08,AE,MAXIS-08-408-001,22,MINOR SKIN ERYTHEMA (CHEST WALL),Skin erythema,,,Erythema,,,,,,,,,,N,DOSE NOT CHANGED,NOT RELATED,RECOVERED/RESOLVED,,,,1,,,999,2010-07-09,2010-07-09,2010-08-10,,,,MILD
MAXIS-08,AE,MAXIS-08-408-001,23,PHARYNGITIS,,,,Pharyngitis,,,,,,,,,,N,DOSE NOT CHANGED,POSSIBLY RELATED,RECOVERED/RESOLVED,,,,1,,,999,2010-06-30,2010-06-30,2010-07-08,,,,MILD
MAXIS-08,AE,MAXIS-08-408-001,24,THROMBOCYTOPENIA,,,,Thrombocytopenia,,,,,,,,,,N,DOSE REDUCED AND INTERRUPTED,POSSIBLY RELATED,RECOVERED/RESOLVED,,,,3,,,999,2010-07-26,2010-07-26,2010-08-10,,,,SEVERE
MAXIS-08,AE,MAXIS-08-408-001,25,MINOR SKIN ERYTHEMA (CHEST WALL),,SKIN ERYTHEMA,28202.0,ERYTHEMA,12456.0,ERYTHEMAS,1532.0,,1053.0,SKIN AND SUBCUTANEOUS TISSUE DISORDERS,954.0,SKIN AND SUBCUTANEOUS TISSUE DISORDERS,954.0,N,DOSE NOT CHANGED,NOT RELATED,RECOVERED/RESOLVED,,,,1,,,999,2010-07-09,2010-07-09,2010-08-10,,,,MILD
MAXIS-08,AE,MAXIS-08-408-001,26,TRANSIENT FEVER,Fever,,,Pyrexia,,,,,,,,,,N,DOSE NOT CHANGED,POSSIBLY RELATED,RECOVERED/RESOLVED,,,,1,,,999,2010-06-30,2010-06-30,2010-07-03,,,,MILD
MAXIS-08,AE,MAXIS-08-408-001,27,INTERMITTENT INSOMNIA,,,,INSOMNIA,12685.0,DISTURBANCES IN INITIATING AND MAINTAINING SLEEP,2759.0,,1275.0,PSYCHIATRIC DISORDERS,969.0,PSYCHIATRIC DISORDERS,969.0,N,DOSE NOT CHANGED,NOT RELATED,RECOVERED/RESOLVED,,,,1,,,999,2010-06-30,2010-06-30,2010-08-10,,,,MILD
MAXIS-08,AE,MAXIS-08-408-001,28,TRANSIENT EPISODE OF TINGLING IN HANDS,Tingling feet/hands,,,Paraesthesia,,,,,,,,,,N,DOSE NOT CHANGED,POSSIBLY RELATED,RECOVERED/RESOLVED,,,,1,,,999,2010-06-16,2010-06-16,2010-06-22,,,,MILD
MAXIS-08,AE,MAXIS-08-408-001,29,TRANSIENT EPISODE OF TINGLING IN HANDS,,TINGLING OF EXTREMITY,50229.0,PARAESTHESIA,12682.0,PARAESTHESIAS AND DYSAESTHESIAS,2534.0,,1115.0,NERVOUS SYSTEM DISORDERS,948.0,NERVOUS SYSTEM DISORDERS,948.0,N,DOSE NOT CHANGED,POSSIBLY RELATED,RECOVERED/RESOLVED,,,,1,,,999,2010-06-16,2010-06-16,2010-06-22,,,,MILD
MAXIS-08,AE,MAXIS-08-408-001,30,FATIGUE,,,,FATIGUE,3246.0,ASTHENIC CONDITIONS,2228.0,,1195.0,GENERAL DISORDERS AND ADMINISTRATION SITE CONDITIONS,963.0,GENERAL DISORDERS AND ADMINISTRATION SITE CONDITIONS,963.0,N,DOSE NOT CHANGED,POSSIBLY RELATED,RECOVERED/RESOLVED,,,,1,,,999,2010-06-17,2010-06-17,2010-06-17,,,,MILD
MAXIS-08,AE,MAXIS-08-408-001,31,PHARYNGITIS,,,,PHARYNGITIS,14485.0,UPPER RESPIRATORY TRACT INFECTIONS,2975.0,,1082.0,INFECTIONS AND INFESTATIONS,958.0,INFECTIONS AND INFESTATIONS,958.0,N,DOSE NOT CHANGED,POSSIBLY RELATED,RECOVERED/RESOLVED,,,,1,,,999,2010-06-30,2010-06-30,2010-07-08,,,,MILD
MAXIS-08,AE,MAXIS-08-408-001,32,TRANSIENT FEVER,,FEVER,20707.0,PYREXIA,3601.0,FEBRILE DISORDERS,2220.0,,1140.0,GENERAL DISORDERS AND ADMINISTRATION SITE CONDITIONS,963.0,GENERAL DISORDERS AND ADMINISTRATION SITE CONDITIONS,963.0,N,DOSE NOT CHANGED,POSSIBLY RELATED,RECOVERED/RESOLVED,,,,1,,,999,2010-06-30,2010-06-30,2010-07-03,,,,MILD
MAXIS-08,AE,MAXIS-08-408-001,33,FEVER,,FEVER,20707.0,PYREXIA,3601.0,FEBRILE DISORDERS,2220.0,,1140.0,GENERAL DISORDERS AND ADMINISTRATION SITE CONDITIONS,963.0,GENERAL DISORDERS AND ADMINISTRATION SITE CONDITIONS,963.0,N,DOSE NOT CHANGED,POSSIBLY RELATED,RECOVERED/RESOLVED,,,,2,,,999,2010-06-30,2010-06-30,2010-06-30,,,,MODERATE
MAXIS-08,AE,MAXIS-08-408-001,34,FACIAL FLUSHING,,FACIAL FLUSHING,36593.0,FLUSHING,3256.0,PERIPHERAL VASCULAR DISORDERS NEC,1699.0,,1068.0,VASCULAR DISORDERS,962.0,VASCULAR DISORDERS,962.0,N,DOSE NOT CHANGED,POSSIBLY RELATED,RECOVERED/RESOLVED,,,,1,,,999,2010-06-30,2010-06-30,2010-07-03,,,,MILD
MAXIS-08,AE,MAXIS-08-408-001,35,ELEVATED AST,,AST INCREASED,20125.0,ASPARTATE AMINOTRANSFERASE INCREASED,3048.0,LIVER FUNCTION ANALYSES,2783.0,,1183.0,INVESTIGATIONS,944.0,INVESTIGATIONS,944.0,N,DOSE NOT CHANGED,POSSIBLY RELATED,RECOVERED/RESOLVED,,,,2,,,999,2010-06-28,2010-06-28,2010-06-29,,,,MODERATE
MAXIS-08,AE,MAXIS-08-408-001,36,FEVER (CHILLS),,FEVER CHILLS,20706.0,PYREXIA,3601.0,FEBRILE DISORDERS,2220.0,,1140.0,GENERAL DISORDERS AND ADMINISTRATION SITE CONDITIONS,963.0,GENERAL DISORDERS AND ADMINISTRATION SITE CONDITIONS,963.0,N,DOSE NOT CHANGED,POSSIBLY RELATED,RECOVERED/RESOLVED,,,,1,,,999,2010-06-30,2010-06-30,2010-06-30,,,,MILD
MAXIS-08,AE,MAXIS-08-408-001,1,RUNNY NOSE,,RUNNY NOSE,40380.0,RHINORRHOEA,5159.0,UPPER RESPIRATORY TRACT SIGNS AND SYMPTOMS,2135.0,,1260.0,"RESPIRATORY, THORACIC AND MEDIASTINAL DISORDERS",951.0,"RESPIRATORY, THORACIC AND MEDIASTINAL DISORDERS",951.0,U,DOSE NOT CHANGED,NOT RELATED,NOT RECOVERED/NOT RESOLVED,,,,1,,,999,2008-10-08,2008-10-08,,,,,MILD
MAXIS-08,AE,MAXIS-08-408-001,2,WEAKNESS,,WEAKNESS,28093.0,ASTHENIA,3052.0,ASTHENIC CONDITIONS,2228.0,,1195.0,GENERAL DISORDERS AND ADMINISTRATION SITE CONDITIONS,963.0,GENERAL DISORDERS AND ADMINISTRATION SITE CONDITIONS,963.0,N,DOSE NOT CHANGED,UNLIKELY RELATED,NOT RECOVERED/NOT RESOLVED,,,,1,,,999,2008-10-01,2008-10-01,,,,,MILD
MAXIS-08,AE,MAXIS-08-408-001,3,NAUSEA,,,,NAUSEA,3478.0,NAUSEA AND VOMITING SYMPTOMS,2916.0,,1137.0,GASTROINTESTINAL DISORDERS,952.0,GASTROINTESTINAL DISORDERS,952.0,N,DOSE NOT CHANGED,POSSIBLY RELATED,NOT RECOVERED/NOT RESOLVED,,,,1,,,999,2008-10-09,2008-10-09,,,,,MILD
MAXIS-08,AE,MAXIS-08-408-001,4,VOMITING,,,,VOMITING,16889.0,NAUSEA AND VOMITING SYMPTOMS,2916.0,,1137.0,GASTROINTESTINAL DISORDERS,952.0,GASTROINTESTINAL DISORDERS,952.0,N,DOSE NOT CHANGED,NOT RELATED,RECOVERED/RESOLVED,,,,1,,,999,2008-10-09,2008-10-09,2008-10-09,,,,MILD
MAXIS-08,AE,MAXIS-08-408-001,5,MUSCLE PAIN,,MUSCLE PAIN,21329.0,MYALGIA,3463.0,MUSCLE PAINS,1394.0,,1178.0,MUSCULOSKELETAL AND CONNECTIVE TISSUE DISORDERS,955.0,MUSCULOSKELETAL AND CONNECTIVE TISSUE DISORDERS,955.0,N,DOSE NOT CHANGED,NOT RELATED,NOT RECOVERED/NOT RESOLVED,,,,2,,,999,2008-10-08,2008-10-08,,,,,MODERATE
MAXIS-08,AE,MAXIS-08-408-001,6,SUBCUTANEOUS NODULE ON CHEST PAINFUL,,,,SUBCUTANEOUS NODULE,7234.0,SKIN AND SUBCUTANEOUS CONDITIONS NEC,2441.0,,1121.0,SKIN AND SUBCUTANEOUS TISSUE DISORDERS,954.0,SKIN AND SUBCUTANEOUS TISSUE DISORDERS,954.0,N,DOSE NOT CHANGED,NOT RELATED,RECOVERED/RESOLVED,,,,1,,,999,2008-10-01,2008-10-01,2008-10-08,,,,MILD
MAXIS-08,AE,MAXIS-08-408-001,7,BACK PAIN,,,,BACK PAIN,3060.0,MUSCULOSKELETAL AND CONNECTIVE TISSUE PAIN AND DISCOMFORT,1982317.0,,988.0,MUSCULOSKELETAL AND CONNECTIVE TISSUE DISORDERS,955.0,MUSCULOSKELETAL AND CONNECTIVE TISSUE DISORDERS,955.0,N,DOSE NOT CHANGED,NOT RELATED,RECOVERED/RESOLVED,,,,2,,,999,2008-10-01,2008-10-01,2008-10-01,,,,MODERATE
MAXIS-08,AE,MAXIS-08-408-001,8,INTERMITTENT FATIGUE,,,,FATIGUE,3246.0,ASTHENIC CONDITIONS,2228.0,,1195.0,GENERAL DISORDERS AND ADMINISTRATION SITE CONDITIONS,963.0,GENERAL DISORDERS AND ADMINISTRATION SITE CONDITIONS,963.0,N,DOSE NOT CHANGED,POSSIBLY RELATED,NOT RECOVERED/NOT RESOLVED,,,,1,,,999,2008-09-17,2008-09-17,,,,,MILD
MAXIS-08,AE,MAXIS-08-408-001,9,RIGHT PARAVERTEBRAL AREA PAIN,,,,BACK PAIN,3060.0,MUSCULOSKELETAL AND CONNECTIVE TISSUE PAIN AND DISCOMFORT,1982317.0,,988.0,MUSCULOSKELETAL AND CONNECTIVE TISSUE DISORDERS,955.0,MUSCULOSKELETAL AND CONNECTIVE TISSUE DISORDERS,955.0,N,DOSE NOT CHANGED,NOT RELATED,NOT RECOVERED/NOT RESOLVED,,,,1,,,999,2008-09-17,2008-09-17,,,,,MILD
MAXIS-08,AE,MAXIS-08-408-001,10,INSOMNIA,,,,INSOMNIA,12685.0,DISTURBANCES IN INITIATING AND MAINTAINING SLEEP,2759.0,,1275.0,PSYCHIATRIC DISORDERS,969.0,PSYCHIATRIC DISORDERS,969.0,N,DOSE NOT CHANGED,NOT RELATED,RECOVERED/RESOLVED,,,,1,,,999,2008-09-10,2008-09-10,2008-09-18,,,,MILD
MAXIS-08,AE,MAXIS-08-408-001,11,COUGH,,,,COUGH,3897.0,COUGHING AND ASSOCIATED SYMPTOMS,2132.0,,1260.0,"RESPIRATORY, THORACIC AND MEDIASTINAL DISORDERS",951.0,"RESPIRATORY, THORACIC AND MEDIASTINAL DISORDERS",951.0,U,DOSE NOT CHANGED,NOT RELATED,NOT RECOVERED/NOT RESOLVED,,,,1,,,999,2008-10-08,2008-10-08,,,,,MILD
MAXIS-08,AE,MAXIS-08-408-001,12,CONSTIPATION,,,,CONSTIPATION,3143.0,GASTROINTESTINAL ATONIC AND HYPOMOTILITY DISORDERS NEC,1346.0,,1228.0,GASTROINTESTINAL DISORDERS,952.0,GASTROINTESTINAL DISORDERS,952.0,N,DOSE NOT CHANGED,UNLIKELY RELATED,RECOVERED/RESOLVED,,,,1,,,999,2008-09-04,2008-09-04,200809.0,,,,MILD
MAXIS-08,AE,MAXIS-08-408-001,13,UPPER BACK PAIN,,UPPER BACK PAIN,48797.0,BACK PAIN,3060.0,MUSCULOSKELETAL AND CONNECTIVE TISSUE PAIN AND DISCOMFORT,1982317.0,,988.0,MUSCULOSKELETAL AND CONNECTIVE TISSUE DISORDERS,955.0,MUSCULOSKELETAL AND CONNECTIVE TISSUE DISORDERS,955.0,N,DOSE NOT CHANGED,NOT RELATED,RECOVERED/RESOLVED,,,,1,,,999,2008-09-10,2008-09-10,2008-09-11,,,,MILD
MAXIS-08,AE,MAXIS-08-408-001,14,INTERMITTENT VOMITING,,,,VOMITING,16889.0,NAUSEA AND VOMITING SYMPTOMS,2916.0,,1137.0,GASTROINTESTINAL DISORDERS,952.0,GASTROINTESTINAL DISORDERS,952.0,N,DOSE NOT CHANGED,UNLIKELY RELATED,RECOVERED/RESOLVED,,,,1,,,999,2008-09-10,2008-09-10,2008-10-01,,,,MILD
MAXIS-08,AE,MAXIS-08-408-001,15,INTERMITTENT BACK PAIN,,,,BACK PAIN,3060.0,MUSCULOSKELETAL AND CONNECTIVE TISSUE PAIN AND DISCOMFORT,1982317.0,,988.0,MUSCULOSKELETAL AND CONNECTIVE TISSUE DISORDERS,955.0,MUSCULOSKELETAL AND CONNECTIVE TISSUE DISORDERS,955.0,N,DOSE NOT CHANGED,NOT RELATED,RECOVERED/RESOLVED,,,,1,,,999,2008-09-24,2008-09-24,2008-10-01,,,,MILD
MAXIS-08,AE,MAXIS-08-408-001,16,INTERMITTENT LEFT ARM PAIN,,PAIN IN ARM,37068.0,PAIN IN EXTREMITY,15624.0,MUSCULOSKELETAL AND CONNECTIVE TISSUE PAIN AND DISCOMFORT,1982317.0,,988.0,MUSCULOSKELETAL AND CONNECTIVE TISSUE DISORDERS,955.0,MUSCULOSKELETAL AND CONNECTIVE TISSUE DISORDERS,955.0,N,DOSE NOT CHANGED,POSSIBLY RELATED,RECOVERED/RESOLVED,,,,1,,,999,2008-09-03,2008-09-03,2008-09-18,,,,MILD
MAXIS-08,AE,MAXIS-08-408-001,17,NAUSEA,,,,NAUSEA,3478.0,NAUSEA AND VOMITING SYMPTOMS,2916.0,,1137.0,GASTROINTESTINAL DISORDERS,952.0,GASTROINTESTINAL DISORDERS,952.0,N,DOSE NOT CHANGED,POSSIBLY RELATED,RECOVERED/RESOLVED,,,,1,,,999,2008-09-10,2008-09-10,2008-09-11,,,,MILD
MAXIS-08,AE,MAXIS-08-408-010,1,VAGUE TINGLING NUMBNESS (KNEE TO THIGH),,NUMBNESS OF EXTREMITIES,48356.0,HYPOAESTHESIA,3350.0,SENSORY ABNORMALITIES NEC,2536.0,,1115.0,NERVOUS SYSTEM DISORDERS,948.0,NERVOUS SYSTEM DISORDERS,948.0,N,DOSE NOT CHANGED,POSSIBLY RELATED,NOT RECOVERED/NOT RESOLVED,,,,2,,,999,2009-08-15,2009-08-15,,,,,MODERATE
MAXIS-08,AE,MAXIS-08-408-010,2,PERIPHERAL NEUROPATHY,,,,NEUROPATHY PERIPHERAL,17827.0,PERIPHERAL NEUROPATHIES NEC,2545.0,,1143.0,NERVOUS SYSTEM DISORDERS,948.0,NERVOUS SYSTEM DISORDERS,948.0,N,DOSE NOT CHANGED,POSSIBLY RELATED,NOT RECOVERED/NOT RESOLVED,,,,1,,,999,2009-08-11,2009-08-11,,,,,MILD
MAXIS-08,AE,MAXIS-08-408-010,3,CONSTIPATION,,,,CONSTIPATION,3143.0,GASTROINTESTINAL ATONIC AND HYPOMOTILITY DISORDERS NEC,1346.0,,1228.0,GASTROINTESTINAL DISORDERS,952.0,GASTROINTESTINAL DISORDERS,952.0,N,DOSE NOT CHANGED,POSSIBLY RELATED,RECOVERED/RESOLVED,,,,2,,,999,2009-10-08,2009-10-08,2009-10-13,,,,MODERATE
MAXIS-08,AE,MAXIS-08-408-010,4,URINARY URGENCY,,URINARY URGENCY,21743.0,MICTURITION URGENCY,5836.0,BLADDER AND URETHRAL SYMPTOMS,2200.0,,1138.0,RENAL AND URINARY DISORDERS,953.0,RENAL AND URINARY DISORDERS,953.0,N,DOSE NOT CHANGED,NOT RELATED,RECOVERED/RESOLVED,,,,2,,,999,2009-11-24,2009-11-24,2009-12-01,,,,MODERATE
MAXIS-08,AE,MAXIS-08-408-010,5,SINUS INFECTION,,SINUS INFECTION,48820.0,SINUSITIS,16756.0,UPPER RESPIRATORY TRACT INFECTIONS,2975.0,,1082.0,INFECTIONS AND INFESTATIONS,958.0,INFECTIONS AND INFESTATIONS,958.0,N,DOSE NOT CHANGED,NOT RELATED,RECOVERED/RESOLVED,,,,1,,,999,2009-12-29,2009-12-29,2010-01-05,,,,MILD
MAXIS-08,AE,MAXIS-08-408-010,6,CAR ACCIDENT,,ACCIDENT AUTOMOBILE,19970.0,ROAD TRAFFIC ACCIDENT,6454.0,NON-SITE SPECIFIC INJURIES NEC,1544.0,,1166.0,"INJURY, POISONING AND PROCEDURAL COMPLICATIONS",959.0,"INJURY, POISONING AND PROCEDURAL COMPLICATIONS",959.0,N,DOSE NOT CHANGED,NOT RELATED,RECOVERED/RESOLVED,,,,1,,,999,2009-12-22,2009-12-22,2009-12-22,,,,MILD
MAXIS-08,AE,MAXIS-08-408-010,7,RIGHT FOCAL ECCHYMOTIC LESION MEDIAL 5TH TOE,,,,ECCHYMOSIS,3204.0,PURPURA AND RELATED CONDITIONS,2455.0,,1194.0,SKIN AND SUBCUTANEOUS TISSUE DISORDERS,954.0,SKIN AND SUBCUTANEOUS TISSUE DISORDERS,954.0,N,DOSE NOT CHANGED,NOT RELATED,RECOVERED/RESOLVED,,,,1,,,999,2009-11-03,2009-11-03,2009-11-10,,,,MILD
MAXIS-08,AE,MAXIS-08-408-010,8,LEFT LOWER EXTREMITY NEUROPATHY,,NEUROPATHY,1414594.0,NEUROPATHY PERIPHERAL,17827.0,PERIPHERAL NEUROPATHIES NEC,2545.0,,1143.0,NERVOUS SYSTEM DISORDERS,948.0,NERVOUS SYSTEM DISORDERS,948.0,N,DOSE NOT CHANGED,POSSIBLY RELATED,RECOVERED/RESOLVED,,,,2,,,999,2009-10-06,2009-10-06,2009-11-24,,,,MODERATE
MAXIS-08,AE,MAXIS-08-408-010,9,OCCASIONAL HEADACHE,,INTERMITTENT HEADACHE,51976.0,HEADACHE,14964.0,HEADACHES NEC,2516.0,,1111.0,NERVOUS SYSTEM DISORDERS,948.0,NERVOUS SYSTEM DISORDERS,948.0,N,DOSE NOT CHANGED,NOT RELATED,NOT RECOVERED/NOT RESOLVED,,,,2,,,999,2009-07-21,2009-07-21,,,,,MODERATE
MAXIS-08,AE,MAXIS-08-408-010,10,ELEVATED URINE PROTEINURIA,,PROTEINURIA AGGRAVATED,48627.0,PROTEINURIA,11929.0,URINARY ABNORMALITIES,2199.0,,1138.0,RENAL AND URINARY DISORDERS,953.0,RENAL AND URINARY DISORDERS,953.0,N,DOSE NOT CHANGED,NOT RELATED,RECOVERED/RESOLVED,,,,2,,,999,2009-07-28,2009-07-28,2009-07-29,,,,MODERATE
MAXIS-08,AE,MAXIS-08-408-010,11,INTERMITTENT NAUSEA,,,,NAUSEA,3478.0,NAUSEA AND VOMITING SYMPTOMS,2916.0,,1137.0,GASTROINTESTINAL DISORDERS,952.0,GASTROINTESTINAL DISORDERS,952.0,N,DOSE NOT CHANGED,POSSIBLY RELATED,RECOVERED/RESOLVED,,,,1,,,999,2009-08-19,2009-08-19,2010-02-18,,,,MILD
MAXIS-08,AE,MAXIS-08-408-010,12,ENTEROBACTERBACCILI INFECTION (URINARY TRACT INFECTION),,,,URINARY TRACT INFECTION,16805.0,URINARY TRACT INFECTIONS,1979.0,,1082.0,INFECTIONS AND INFESTATIONS,958.0,INFECTIONS AND INFESTATIONS,958.0,N,DOSE NOT CHANGED,NOT RELATED,RECOVERED/RESOLVED,,,,2,,,999,2009-08-25,2009-08-25,2009-08-31,,,,MODERATE
MAXIS-08,AE,MAXIS-08-408-010,13,VAGUE SKIN RASH (BACK OF HEAD),,SKIN RASH,28201.0,RASH,17007.0,"RASHES, ERUPTIONS AND EXANTHEMS NEC",2846.0,,1053.0,SKIN AND SUBCUTANEOUS TISSUE DISORDERS,954.0,SKIN AND SUBCUTANEOUS TISSUE DISORDERS,954.0,N,DOSE NOT CHANGED,NOT RELATED,RECOVERED/RESOLVED,,,,1,,,999,2009-12-22,2009-12-22,2010-01-05,,,,MILD
MAXIS-08,AE,MAXIS-08-408-010,14,FEVER,,FEVER,20707.0,PYREXIA,3601.0,FEBRILE DISORDERS,2220.0,,1140.0,GENERAL DISORDERS AND ADMINISTRATION SITE CONDITIONS,963.0,GENERAL DISORDERS AND ADMINISTRATION SITE CONDITIONS,963.0,N,DOSE NOT CHANGED,POSSIBLY RELATED,RECOVERED/RESOLVED,,,,1,,,999,2009-08-18,2009-08-18,2009-08-19,,,,MILD
MAXIS-08,AE,MAXIS-08-408-010,15,NAUSEA,,,,NAUSEA,3478.0,NAUSEA AND VOMITING SYMPTOMS,2916.0,,1137.0,GASTROINTESTINAL DISORDERS,952.0,GASTROINTESTINAL DISORDERS,952.0,N,DOSE NOT CHANGED,POSSIBLY RELATED,RECOVERED/RESOLVED,,,,1,,,999,2009-07-23,2009-07-23,2009-08-04,,,,MILD
MAXIS-08,AE,MAXIS-08-408-010,16,CHILLS,,,,CHILLS,19098.0,FEELINGS AND SENSATIONS NEC,1982319.0,,1195.0,GENERAL DISORDERS AND ADMINISTRATION SITE CONDITIONS,963.0,GENERAL DISORDERS AND ADMINISTRATION SITE CONDITIONS,963.0,N,DOSE NOT CHANGED,NOT RELATED,RECOVERED/RESOLVED,,,,1,,,999,2009-08-18,2009-08-18,2009-08-18,,,,MILD
MAXIS-08,AE,MAXIS-08-408-010,17,CONSTIPATION,,,,CONSTIPATION,3143.0,GASTROINTESTINAL ATONIC AND HYPOMOTILITY DISORDERS NEC,1346.0,,1228.0,GASTROINTESTINAL DISORDERS,952.0,GASTROINTESTINAL DISORDERS,952.0,N,DOSE NOT CHANGED,POSSIBLY RELATED,RECOVERED/RESOLVED,,,,2,,,999,2009-07-23,2009-07-23,2009-08-04,,,,MODERATE
MAXIS-08,AE,MAXIS-08-408-010,18,PERIPHERAL NEUROPATHY,,,,NEUROPATHY PERIPHERAL,17827.0,PERIPHERAL NEUROPATHIES NEC,2545.0,,1143.0,NERVOUS SYSTEM DISORDERS,948.0,NERVOUS SYSTEM DISORDERS,948.0,N,DOSE NOT CHANGED,POSSIBLY RELATED,RECOVERED/RESOLVED,,,,1,,,999,2009-07-22,2009-07-22,2009-08-04,,,,MILD
MAXIS-08,AE,MAXIS-08-408-010,19,TRANSIENT PERIPHERAL NEUROPATHY,,,,NEUROPATHY PERIPHERAL,17827.0,PERIPHERAL NEUROPATHIES NEC,2545.0,,1143.0,NERVOUS SYSTEM DISORDERS,948.0,NERVOUS SYSTEM DISORDERS,948.0,N,DOSE NOT CHANGED,POSSIBLY RELATED,RECOVERED/RESOLVED,,,,1,,,999,2009-08-05,2009-08-05,2009-08-05,,,,MILD
MAXIS-08,AE,MAXIS-08-408-010,20,INTERMITTENT FATIGUE,,,,FATIGUE,3246.0,ASTHENIC CONDITIONS,2228.0,,1195.0,GENERAL DISORDERS AND ADMINISTRATION SITE CONDITIONS,963.0,GENERAL DISORDERS AND ADMINISTRATION SITE CONDITIONS,963.0,N,DOSE NOT CHANGED,POSSIBLY RELATED,NOT RECOVERED/NOT RESOLVED,,,,1,,,999,2009-07-28,2009-07-28,,,,,MILD
MAXIS-08,AE,MAXIS-08-408-010,21,INTERMITTENT NAUSEA,,,,NAUSEA,3478.0,NAUSEA AND VOMITING SYMPTOMS,2916.0,,1137.0,GASTROINTESTINAL DISORDERS,952.0,GASTROINTESTINAL DISORDERS,952.0,N,DOSE NOT CHANGED,POSSIBLY RELATED,RECOVERED/RESOLVED,,,,1,,,999,2009-08-05,2009-08-05,2009-08-18,,,,MILD
MAXIS-08,AE,MAXIS-08-408-010,22,SHARP LEFT KNEE PAIN,,KNEE PAIN,21621.0,ARTHRALGIA,3045.0,JOINT RELATED SIGNS AND SYMPTOMS,2418.0,,970.0,MUSCULOSKELETAL AND CONNECTIVE TISSUE DISORDERS,955.0,MUSCULOSKELETAL AND CONNECTIVE TISSUE DISORDERS,955.0,N,DOSE NOT CHANGED,NOT RELATED,RECOVERED/RESOLVED,,,,2,,,999,2009-08-15,2009-08-15,2009-08-18,,,,MODERATE
MAXIS-08,AE,MAXIS-08-408-010,23,LEFT KNEE SWOLLEN,,SWELLING OF L KNEE,27655.0,JOINT SWELLING,6174.0,JOINT RELATED SIGNS AND SYMPTOMS,2418.0,,970.0,MUSCULOSKELETAL AND CONNECTIVE TISSUE DISORDERS,955.0,MUSCULOSKELETAL AND CONNECTIVE TISSUE DISORDERS,955.0,N,DOSE NOT CHANGED,NOT RELATED,RECOVERED/RESOLVED,,,,1,,,999,2009-08-18,2009-08-18,2009-08-25,,,,MILD
MAXIS-08,AE,MAXIS-08-408-010,24,INTERMITTENT VOMITING,,,,VOMITING,16889.0,NAUSEA AND VOMITING SYMPTOMS,2916.0,,1137.0,GASTROINTESTINAL DISORDERS,952.0,GASTROINTESTINAL DISORDERS,952.0,N,DOSE NOT CHANGED,POSSIBLY RELATED,RECOVERED/RESOLVED,,,,1,,,999,2009-08-19,2009-08-19,2010-02-18,,,,MILD
MAXIS-08,AE,MAXIS-08-408-011,1,INTERMITTENT WEAKNESS,,WEAKNESS,28093.0,ASTHENIA,3052.0,ASTHENIC CONDITIONS,2228.0,,1195.0,GENERAL DISORDERS AND ADMINISTRATION SITE CONDITIONS,963.0,GENERAL DISORDERS AND ADMINISTRATION SITE CONDITIONS,963.0,N,DOSE NOT CHANGED,POSSIBLY RELATED,NOT RECOVERED/NOT RESOLVED,,,,2,,,999,2009-10-08,2009-10-08,,,,,MODERATE
MAXIS-08,AE,MAXIS-08-408-011,2,DIZZINESS,,,,DIZZINESS,13503.0,NEUROLOGICAL SIGNS AND SYMPTOMS NEC,2533.0,,1115.0,NERVOUS SYSTEM DISORDERS,948.0,NERVOUS SYSTEM DISORDERS,948.0,N,DOSE NOT CHANGED,POSSIBLY RELATED,RECOVERED/RESOLVED,,,,1,,,999,2009-11-04,2009-11-04,2009-11-06,,,,MILD
MAXIS-08,AE,MAXIS-08-408-011,3,NAUSEA,,,,NAUSEA,3478.0,NAUSEA AND VOMITING SYMPTOMS,2916.0,,1137.0,GASTROINTESTINAL DISORDERS,952.0,GASTROINTESTINAL DISORDERS,952.0,N,DOSE NOT CHANGED,PROBABLY RELATED,RECOVERED/RESOLVED,,,,1,,,999,2009-11-06,2009-11-06,2009-11-06,,,,MILD
MAXIS-08,AE,MAXIS-08-408-011,4,HYPOTENSION,,,,HYPOTENSION,16545.0,VASCULAR HYPOTENSIVE DISORDERS,2939.0,,1119.0,VASCULAR DISORDERS,962.0,VASCULAR DISORDERS,962.0,N,DOSE NOT CHANGED,UNLIKELY RELATED,RECOVERED/RESOLVED,,,,1,,,999,2009-11-07,2009-11-07,2009-11-08,,,,MILD
MAXIS-08,AE,MAXIS-08-408-011,5,UPSET STOMACH,,UPSET STOMACH,28158.0,ABDOMINAL DISCOMFORT,12906.0,GASTROINTESTINAL SIGNS AND SYMPTOMS NEC,1695.0,,1137.0,GASTROINTESTINAL DISORDERS,952.0,GASTROINTESTINAL DISORDERS,952.0,N,DOSE NOT CHANGED,UNLIKELY RELATED,RECOVERED/RESOLVED,,,,1,,,999,2009-11-13,2009-11-13,2009-11-13,,,,MILD
MAXIS-08,AE,MAXIS-08-408-011,6,EYE PAIN,,,,EYE PAIN,3240.0,OCULAR DISORDERS NEC,1499.0,,1018.0,EYE DISORDERS,949.0,EYE DISORDERS,949.0,N,DOSE NOT CHANGED,NOT RELATED,RECOVERED/RESOLVED,,,,1,,,999,2009-11-20,2009-11-20,2009-11-20,,,,MILD
MAXIS-08,AE,MAXIS-08-408-011,7,LOSS OF APPETITE,,APPETITE LOST,20178.0,DECREASED APPETITE,17546.0,APPETITE DISORDERS,1664.0,,1063.0,METABOLISM AND NUTRITION DISORDERS,957.0,METABOLISM AND NUTRITION DISORDERS,957.0,N,DOSE NOT CHANGED,NOT RELATED,RECOVERED/RESOLVED,,,,1,,,999,2009-10-08,2009-10-08,2009-10-15,,,,MILD
MAXIS-08,AE,MAXIS-08-408-011,8,RIGHT JAW PAIN,,JAW PAIN,21648.0,PAIN IN JAW,6368.0,BONE RELATED SIGNS AND SYMPTOMS,2409.0,,1041.0,MUSCULOSKELETAL AND CONNECTIVE TISSUE DISORDERS,955.0,MUSCULOSKELETAL AND CONNECTIVE TISSUE DISORDERS,955.0,N,DOSE NOT CHANGED,NOT RELATED,RECOVERED/RESOLVED,,,,2,,,999,2009-07-24,2009-07-24,2009-07-24,,,,MODERATE
MAXIS-08,AE,MAXIS-08-408-011,9,RIGHT MOLAR TOOTH EXTRACTION,,,,TOOTH EXTRACTION,18359.0,DENTAL AND GINGIVAL THERAPEUTIC PROCEDURES,1461.0,,1057.0,SURGICAL AND MEDICAL PROCEDURES,961.0,SURGICAL AND MEDICAL PROCEDURES,961.0,N,DOSE NOT CHANGED,NOT RELATED,RECOVERED/RESOLVED,,,,2,,,999,2009-10-15,2009-10-15,2009-10-15,,,,MODERATE
MAXIS-08,AE,MAXIS-08-408-011,10,PERIPHERAL NEUROPATHY BILATERAL FINGERS AND TOES,,,,NEUROPATHY PERIPHERAL,17827.0,PERIPHERAL NEUROPATHIES NEC,2545.0,,1143.0,NERVOUS SYSTEM DISORDERS,948.0,NERVOUS SYSTEM DISORDERS,948.0,N,DRUG WITHDRAWN,PROBABLY RELATED,NOT RECOVERED/NOT RESOLVED,,,,3,,,999,2010-02-08,2010-02-08,,,,,SEVERE
MAXIS-08,AE,MAXIS-08-408-011,11,DECREASED PERIANAL SENSATION,,SENSATION LOSS,36196.0,SENSORY LOSS,7754.0,SENSORY ABNORMALITIES NEC,2536.0,,1115.0,NERVOUS SYSTEM DISORDERS,948.0,NERVOUS SYSTEM DISORDERS,948.0,N,DOSE NOT CHANGED,POSSIBLY RELATED,NOT RECOVERED/NOT RESOLVED,,,,1,,,999,2009-12-23,2009-12-23,,,,,MILD
MAXIS-08,AE,MAXIS-08-408-011,12,TINGLING HANDS/FEET,,TINGLING FEET/HANDS,21888.0,PARAESTHESIA,12682.0,PARAESTHESIAS AND DYSAESTHESIAS,2534.0,,1115.0,NERVOUS SYSTEM DISORDERS,948.0,NERVOUS SYSTEM DISORDERS,948.0,N,DOSE NOT CHANGED,PROBABLY RELATED,RECOVERED/RESOLVED,,,,1,,,999,2009-11-20,2009-11-20,2009-11-20,,,,MILD
MAXIS-08,AE,MAXIS-08-408-011,13,FATIGUE,,,,FATIGUE,3246.0,ASTHENIC CONDITIONS,2228.0,,1195.0,GENERAL DISORDERS AND ADMINISTRATION SITE CONDITIONS,963.0,GENERAL DISORDERS AND ADMINISTRATION SITE CONDITIONS,963.0,N,DOSE NOT CHANGED,POSSIBLY RELATED,NOT RECOVERED/NOT RESOLVED,,,,1,,,999,2009-09-25,2009-09-25,,,,,MILD
MAXIS-08,AE,MAXIS-08-408-011,14,RIGHT SIDED CHEST PAIN,,,,CHEST PAIN,12589.0,PAIN AND DISCOMFORT NEC,2241.0,,1195.0,GENERAL DISORDERS AND ADMINISTRATION SITE CONDITIONS,963.0,GENERAL DISORDERS AND ADMINISTRATION SITE CONDITIONS,963.0,Y,DOSE NOT CHANGED,NOT RELATED,RECOVERED/RESOLVED,,,,2,,,999,2009-08-04,2009-08-04,2009-08-05,,,,MODERATE
MAXIS-08,AE,MAXIS-08-408-011,15,LEFT LOWER NECK WITH INCREASED PUFFINESS,,TISSUE PUFFING,21883.0,SWELLING,16815.0,GENERAL SIGNS AND SYMPTOMS NEC,2237.0,,1195.0,GENERAL DISORDERS AND ADMINISTRATION SITE CONDITIONS,963.0,GENERAL DISORDERS AND ADMINISTRATION SITE CONDITIONS,963.0,N,DOSE NOT CHANGED,UNLIKELY RELATED,NOT RECOVERED/NOT RESOLVED,,,,2,,,999,2009-09-10,2009-09-10,,,,,MODERATE
MAXIS-08,AE,MAXIS-08-408-011,16,PAIN TO RIGHT JAW AREA (TOOTHACHE),,TOOTH ACHE,26404.0,TOOTHACHE,3742.0,DENTAL PAIN AND SENSATION DISORDERS,1909.0,,1224.0,GASTROINTESTINAL DISORDERS,952.0,GASTROINTESTINAL DISORDERS,952.0,N,DOSE NOT CHANGED,NOT RELATED,RECOVERED/RESOLVED,,,,1,,,999,2009-07-24,2009-07-24,2009-07-24,,,,MILD
MAXIS-08,AE,MAXIS-08-408-011,17,COLD CHILLS,,,,CHILLS,19098.0,FEELINGS AND SENSATIONS NEC,1982319.0,,1195.0,GENERAL DISORDERS AND ADMINISTRATION SITE CONDITIONS,963.0,GENERAL DISORDERS AND ADMINISTRATION SITE CONDITIONS,963.0,N,DOSE NOT CHANGED,UNLIKELY RELATED,NOT RECOVERED/NOT RESOLVED,,,,1,,,999,2009-07-25,2009-07-25,,,,,MILD
MAXIS-08,AE,MAXIS-08-408-011,18,LIGHT HEADEDNESS,,LIGHT HEADEDNESS,28367.0,DIZZINESS,13503.0,NEUROLOGICAL SIGNS AND SYMPTOMS NEC,2533.0,,1115.0,NERVOUS SYSTEM DISORDERS,948.0,NERVOUS SYSTEM DISORDERS,948.0,N,DOSE NOT CHANGED,NOT RELATED,RECOVERED/RESOLVED,,,,1,,,999,2009-07-30,2009-07-30,2009-07-31,,,,MILD
MAXIS-08,AE,MAXIS-08-408-011,19,NAUSEA,,,,NAUSEA,3478.0,NAUSEA AND VOMITING SYMPTOMS,2916.0,,1137.0,GASTROINTESTINAL DISORDERS,952.0,GASTROINTESTINAL DISORDERS,952.0,N,DOSE NOT CHANGED,POSSIBLY RELATED,RECOVERED/RESOLVED,,,,1,,,999,2009-07-30,2009-07-30,2009-07-31,,,,MILD
MAXIS-08,AE,MAXIS-08-408-011,20,CHEST HEAVINESS,,CHEST HEAVINESS,48838.0,CHEST DISCOMFORT,12911.0,PAIN AND DISCOMFORT NEC,2241.0,,1195.0,GENERAL DISORDERS AND ADMINISTRATION SITE CONDITIONS,963.0,GENERAL DISORDERS AND ADMINISTRATION SITE CONDITIONS,963.0,N,DOSE NOT CHANGED,UNLIKELY RELATED,RECOVERED/RESOLVED,,,,1,,,999,2009-07-30,2009-07-30,2009-07-31,,,,MILD
MAXIS-08,AE,MAXIS-08-408-011,21,GENERALIZED HEMORRHAGIC SKIN RASH,,SKIN RASH,28201.0,RASH,17007.0,"RASHES, ERUPTIONS AND EXANTHEMS NEC",2846.0,,1053.0,SKIN AND SUBCUTANEOUS TISSUE DISORDERS,954.0,SKIN AND SUBCUTANEOUS TISSUE DISORDERS,954.0,N,DOSE NOT CHANGED,POSSIBLY RELATED,NOT RECOVERED/NOT RESOLVED,,,,1,,,999,2009-12-27,2009-12-27,,,,,MILD
MAXIS-08,AE,MAXIS-08-408-011,22,HEMORRHAGIC SPOTS,,BLEEDING SPOT SUBCUTANEOUS,35452.0,HAEMORRHAGE SUBCUTANEOUS,7823.0,SKIN HAEMORRHAGES,2456.0,,1194.0,SKIN AND SUBCUTANEOUS TISSUE DISORDERS,954.0,SKIN AND SUBCUTANEOUS TISSUE DISORDERS,954.0,N,DOSE NOT CHANGED,NOT RELATED,NOT RECOVERED/NOT RESOLVED,,,,1,,,999,2009-09-18,2009-09-18,,,,,MILD
MAXIS-08,AE,MAXIS-08-408-011,23,CREATININE ELEVATED,,CREATININE INCREASED,29203.0,BLOOD CREATININE INCREASED,5580.0,RENAL FUNCTION ANALYSES,2822.0,,1236.0,INVESTIGATIONS,944.0,INVESTIGATIONS,944.0,Y,DOSE NOT CHANGED,NOT RELATED,RECOVERED/RESOLVED,,,,2,,,999,2009-08-04,2009-08-04,2009-08-05,,,,MODERATE
MAXIS-08,AE,MAXIS-08-408-011,24,ECCYMOSIS LEFT KNEE,,,,ECCHYMOSIS,3204.0,PURPURA AND RELATED CONDITIONS,2455.0,,1194.0,SKIN AND SUBCUTANEOUS TISSUE DISORDERS,954.0,SKIN AND SUBCUTANEOUS TISSUE DISORDERS,954.0,N,DOSE NOT CHANGED,POSSIBLY RELATED,RECOVERED/RESOLVED,,,,1,,,999,2009-08-21,2009-08-21,2009-08-27,,,,MILD
MAXIS-08,AE,MAXIS-08-408-011,25,RIGHT INTRACLAVICULAR AREA PAIN,,,,BACK PAIN,3060.0,MUSCULOSKELETAL AND CONNECTIVE TISSUE PAIN AND DISCOMFORT,1982317.0,,988.0,MUSCULOSKELETAL AND CONNECTIVE TISSUE DISORDERS,955.0,MUSCULOSKELETAL AND CONNECTIVE TISSUE DISORDERS,955.0,N,DOSE NOT CHANGED,NOT RELATED,RECOVERED/RESOLVED,,,,1,,,999,2009-08-27,2009-08-27,2009-09-03,,,,MILD
MAXIS-08,AE,MAXIS-08-408-011,26,PETECHIAL SKIN RASH RIGHT THIGH,,PETECHIAL RASH,29228.0,PETECHIAE,5285.0,PURPURA AND RELATED CONDITIONS,2455.0,,1194.0,SKIN AND SUBCUTANEOUS TISSUE DISORDERS,954.0,SKIN AND SUBCUTANEOUS TISSUE DISORDERS,954.0,N,DOSE NOT CHANGED,POSSIBLY RELATED,RECOVERED/RESOLVED,,,,1,,,999,2009-08-27,2009-08-27,2009-09-03,,,,MILD
MAXIS-08,AE,MAXIS-08-408-011,27,BILATERAL SUPRACLAVICULAR/LOWER NECK PUFFYNESS,,NECK SWELLING,48091.0,LOCAL SWELLING,6786.0,GENERAL SIGNS AND SYMPTOMS NEC,2237.0,,1195.0,GENERAL DISORDERS AND ADMINISTRATION SITE CONDITIONS,963.0,GENERAL DISORDERS AND ADMINISTRATION SITE CONDITIONS,963.0,N,DOSE NOT CHANGED,UNLIKELY RELATED,NOT RECOVERED/NOT RESOLVED,,,,1,,,999,2009-09-03,2009-09-03,,,,,MILD
MAXIS-08,AE,MAXIS-08-408-011,28,DIARRHEA,,DIARRHEA,20541.0,DIARRHOEA,16440.0,DIARRHOEA (EXCL INFECTIVE),1914.0,,1228.0,GASTROINTESTINAL DISORDERS,952.0,GASTROINTESTINAL DISORDERS,952.0,N,DOSE NOT CHANGED,NOT RELATED,RECOVERED/RESOLVED,,,,1,,,999,2009-09-10,2009-09-10,2009-09-18,,,,MILD
MAXIS-08,AE,MAXIS-08-408-011,29,PERIPHERAL PARESTHESIA,,PARESTHESIA,39002.0,PARAESTHESIA,12682.0,PARAESTHESIAS AND DYSAESTHESIAS,2534.0,,1115.0,NERVOUS SYSTEM DISORDERS,948.0,NERVOUS SYSTEM DISORDERS,948.0,N,DOSE NOT CHANGED,POSSIBLY RELATED,RECOVERED/RESOLVED,,,,1,,,999,2009-09-03,2009-09-03,2009-09-24,,,,MILD
MAXIS-08,AE,MAXIS-08-408-011,30,WEAKNESS,,WEAKNESS,28093.0,ASTHENIA,3052.0,ASTHENIC CONDITIONS,2228.0,,1195.0,GENERAL DISORDERS AND ADMINISTRATION SITE CONDITIONS,963.0,GENERAL DISORDERS AND ADMINISTRATION SITE CONDITIONS,963.0,N,DOSE NOT CHANGED,NOT RELATED,RECOVERED/RESOLVED,,,,1,,,999,2009-08-12,2009-08-12,2009-08-14,,,,MILD
MAXIS-08,AE,MAXIS-08-408-011,31,DIZZINESS,,,,DIZZINESS,13503.0,NEUROLOGICAL SIGNS AND SYMPTOMS NEC,2533.0,,1115.0,NERVOUS SYSTEM DISORDERS,948.0,NERVOUS SYSTEM DISORDERS,948.0,N,DOSE NOT CHANGED,NOT RELATED,RECOVERED/RESOLVED,,,,1,,,999,2009-07-30,2009-07-30,2009-07-31,,,,MILD
MAXIS-08,AE,MAXIS-08-408-011,32,PERIPHERAL NEUROPATHY BILATERAL FINGERS AND TOES,,,,NEUROPATHY PERIPHERAL,17827.0,PERIPHERAL NEUROPATHIES NEC,2545.0,,1143.0,NERVOUS SYSTEM DISORDERS,948.0,NERVOUS SYSTEM DISORDERS,948.0,N,DOSE NOT CHANGED,PROBABLY RELATED,RECOVERED/RESOLVED,,,,1,,,999,2009-12-08,2009-12-08,2010-02-08,,,,MILD
MAXIS-08,AE,MAXIS-08-408-012,1,NARCOTIC OVERDOSE,,DRUG OVERDOSE,1520866.0,OVERDOSE,16644.0,OVERDOSES,1334.0,,1299.0,"INJURY, POISONING AND PROCEDURAL COMPLICATIONS",959.0,"INJURY, POISONING AND PROCEDURAL COMPLICATIONS",959.0,Y,DOSE NOT CHANGED,NOT RELATED,NOT RECOVERED/NOT RESOLVED,,,,3,,,999,2009-09-07,2009-09-07,,,,,SEVERE
MAXIS-08,AE,MAXIS-08-408-012,2,ANEMIA,,ANEMIA,20088.0,ANAEMIA,16270.0,ANAEMIAS NEC,1437.0,,971.0,BLOOD AND LYMPHATIC SYSTEM DISORDERS,947.0,BLOOD AND LYMPHATIC SYSTEM DISORDERS,947.0,Y,DOSE NOT CHANGED,POSSIBLY RELATED,NOT RECOVERED/NOT RESOLVED,,,,3,,,999,2009-09-13,2009-09-13,,,,,SEVERE
MAXIS-08,AE,MAXIS-08-408-012,3,LEUCOPENIA,,LEUCOPENIA,21571.0,LEUKOPENIA,16591.0,LEUKOPENIAS NEC,2436.0,,1182.0,BLOOD AND LYMPHATIC SYSTEM DISORDERS,947.0,BLOOD AND LYMPHATIC SYSTEM DISORDERS,947.0,Y,DOSE NOT CHANGED,POSSIBLY RELATED,RECOVERED/RESOLVED,,,,2,,,999,2009-09-07,2009-09-07,2009-09-11,,,,MODERATE
MAXIS-08,AE,MAXIS-08-408-012,4,HYPOKALEMIA,,HYPOKALEMIA,39238.0,HYPOKALAEMIA,3357.0,POTASSIUM IMBALANCE,2244.0,,1151.0,METABOLISM AND NUTRITION DISORDERS,957.0,METABOLISM AND NUTRITION DISORDERS,957.0,Y,DOSE NOT CHANGED,NOT RELATED,RECOVERED/RESOLVED,,,,3,,,999,2009-09-08,2009-09-08,2009-09-10,,,,SEVERE
MAXIS-08,AE,MAXIS-08-408-012,5,CONFUSION,,CONFUSION,39706.0,CONFUSIONAL STATE,9703.0,CONFUSION AND DISORIENTATION,1753.0,,1049.0,PSYCHIATRIC DISORDERS,969.0,PSYCHIATRIC DISORDERS,969.0,Y,DOSE NOT CHANGED,NOT RELATED,NOT RECOVERED/NOT RESOLVED,,,,4,,,999,2009-09-07,2009-09-07,,,,,LIFE THREATENING
MAXIS-08,AE,MAXIS-08-408-012,6,DISEASE PROGRESSION,,,,DISEASE PROGRESSION,18048.0,GENERAL SIGNS AND SYMPTOMS NEC,2237.0,,1195.0,GENERAL DISORDERS AND ADMINISTRATION SITE CONDITIONS,963.0,GENERAL DISORDERS AND ADMINISTRATION SITE CONDITIONS,963.0,Y,DOSE NOT CHANGED,NOT RELATED,FATAL,,,,5,,,999,2009-09-27,2009-09-27,2009-09-27,,,,FATAL
MAXIS-08,AE,MAXIS-08-408-012,7,BODY PAINS,,GENERAL BODY PAIN,48407.0,PAIN,16657.0,PAIN AND DISCOMFORT NEC,2241.0,,1195.0,GENERAL DISORDERS AND ADMINISTRATION SITE CONDITIONS,963.0,GENERAL DISORDERS AND ADMINISTRATION SITE CONDITIONS,963.0,Y,DOSE NOT CHANGED,NOT RELATED,NOT RECOVERED/NOT RESOLVED,,,,3,,,999,2009-09-07,2009-09-07,,,,,SEVERE
MAXIS-08,AE,MAXIS-08-408-012,8,INSOMNIA,,,,INSOMNIA,12685.0,DISTURBANCES IN INITIATING AND MAINTAINING SLEEP,2759.0,,1275.0,PSYCHIATRIC DISORDERS,969.0,PSYCHIATRIC DISORDERS,969.0,N,DOSE NOT CHANGED,UNLIKELY RELATED,RECOVERED/RESOLVED,,,,1,,,999,2009-09-03,2009-09-03,2009-09-04,,,,MILD
MAXIS-08,AE,MAXIS-08-408-013,1,CENTRAL NERVOUS SYSTEM INVOLVEMENT,,METASTASES TO BRAIN,23314.0,METASTASES TO CENTRAL NERVOUS SYSTEM,15577.0,METASTASES TO SPECIFIED SITES,2626.0,,1102.0,"NEOPLASMS BENIGN, MALIGNANT AND UNSPECIFIED (INCL CYSTS AND POLYPS)",960.0,"NEOPLASMS BENIGN, MALIGNANT AND UNSPECIFIED (INCL CYSTS AND POLYPS)",960.0,Y,DRUG WITHDRAWN,NOT RELATED,RECOVERED/RESOLVED,,,,3,,,999,2009-10-23,2009-10-23,2009-10-28,,,,SEVERE
MAXIS-08,AE,MAXIS-08-408-013,2,URINARY TRACT INFECTION,,,,URINARY TRACT INFECTION,16805.0,URINARY TRACT INFECTIONS,1979.0,,1082.0,INFECTIONS AND INFESTATIONS,958.0,INFECTIONS AND INFESTATIONS,958.0,N,DOSE NOT CHANGED,UNLIKELY RELATED,NOT RECOVERED/NOT RESOLVED,,,,2,,,999,2009-10-13,2009-10-13,,,,,MODERATE
MAXIS-08,AE,MAXIS-08-408-013,3,DIARRHEA,,DIARRHEA,20541.0,DIARRHOEA,16440.0,DIARRHOEA (EXCL INFECTIVE),1914.0,,1228.0,GASTROINTESTINAL DISORDERS,952.0,GASTROINTESTINAL DISORDERS,952.0,N,DOSE NOT CHANGED,POSSIBLY RELATED,RECOVERED/RESOLVED,,,,1,,,999,2009-10-09,2009-10-09,2009-10-13,,,,MILD
MAXIS-08,AE,MAXIS-08-408-013,4,ANEMIA,,ANEMIA,20088.0,ANAEMIA,16270.0,ANAEMIAS NEC,1437.0,,971.0,BLOOD AND LYMPHATIC SYSTEM DISORDERS,947.0,BLOOD AND LYMPHATIC SYSTEM DISORDERS,947.0,N,DOSE NOT CHANGED,NOT RELATED,RECOVERED/RESOLVED,,,,2,,,999,2009-10-14,2009-10-14,2009-10-28,,,,MODERATE
MAXIS-08,AE,MAXIS-08-408-013,5,INTERMITTENT FATIGUE,,,,FATIGUE,3246.0,ASTHENIC CONDITIONS,2228.0,,1195.0,GENERAL DISORDERS AND ADMINISTRATION SITE CONDITIONS,963.0,GENERAL DISORDERS AND ADMINISTRATION SITE CONDITIONS,963.0,N,DOSE NOT CHANGED,NOT RELATED,NOT RECOVERED/NOT RESOLVED,,,,1,,,999,2009-10-01,2009-10-01,,,,,MILD
MAXIS-08,AE,MAXIS-08-408-013,6,ANXIETY,,,,ANXIETY,14721.0,ANXIETY SYMPTOMS,1529.0,,1027.0,PSYCHIATRIC DISORDERS,969.0,PSYCHIATRIC DISORDERS,969.0,N,DOSE NOT CHANGED,UNLIKELY RELATED,RECOVERED/RESOLVED,,,,2,,,999,2009-10-23,2009-10-23,2009-10-27,,,,MODERATE
MAXIS-08,AE,MAXIS-08-408-013,7,PLEURITIC CHEST PAIN,,PLEURAL PAIN,38905.0,PLEURITIC PAIN,4093.0,LOWER RESPIRATORY TRACT SIGNS AND SYMPTOMS,2133.0,,1260.0,"RESPIRATORY, THORACIC AND MEDIASTINAL DISORDERS",951.0,"RESPIRATORY, THORACIC AND MEDIASTINAL DISORDERS",951.0,Y,DOSE NOT CHANGED,NOT RELATED,RECOVERED/RESOLVED,,,,1,,,999,2009-10-12,2009-10-12,2009-10-13,,,,MILD
MAXIS-08,AE,MAXIS-08-408-013,8,SHORTNESS OF BREATH,,SHORTNESS OF BREATH,22271.0,DYSPNOEA,15703.0,BREATHING ABNORMALITIES,2130.0,,1260.0,"RESPIRATORY, THORACIC AND MEDIASTINAL DISORDERS",951.0,"RESPIRATORY, THORACIC AND MEDIASTINAL DISORDERS",951.0,Y,DOSE NOT CHANGED,NOT RELATED,RECOVERED/RESOLVED,,,,1,,,999,2009-10-12,2009-10-12,2009-10-13,,,,MILD
MAXIS-08,AE,MAXIS-08-408-013,9,INTERMITTENT NAUSEA,,,,NAUSEA,3478.0,NAUSEA AND VOMITING SYMPTOMS,2916.0,,1137.0,GASTROINTESTINAL DISORDERS,952.0,GASTROINTESTINAL DISORDERS,952.0,N,DOSE NOT CHANGED,NOT RELATED,NOT RECOVERED/NOT RESOLVED,,,,1,,,999,2009-10-07,2009-10-07,,,,,MILD
MAXIS-08,AE,MAXIS-08-408-013,10,ANEMIA,,ANEMIA,20088.0,ANAEMIA,16270.0,ANAEMIAS NEC,1437.0,,971.0,BLOOD AND LYMPHATIC SYSTEM DISORDERS,947.0,BLOOD AND LYMPHATIC SYSTEM DISORDERS,947.0,N,DOSE NOT CHANGED,NOT RELATED,RECOVERED/RESOLVED,,,,3,,,999,2009-10-01,2009-10-01,2009-10-02,,,,SEVERE
MAXIS-08,AE,MAXIS-08-408-013,11,GASTRIC REFLUX,,,,DUODENOGASTRIC REFLUX,16738.0,GASTROINTESTINAL ATONIC AND HYPOMOTILITY DISORDERS NEC,1346.0,,1228.0,GASTROINTESTINAL DISORDERS,952.0,GASTROINTESTINAL DISORDERS,952.0,N,DOSE NOT CHANGED,NOT RELATED,RECOVERED/RESOLVED,,,,1,,,999,2009-10-27,2009-10-27,2009-10-27,,,,MILD
MAXIS-08,AE,MAXIS-08-408-014,1,TACHYCARDIA,,,,TACHYCARDIA,16772.0,RATE AND RHYTHM DISORDERS NEC,1313.0,,998.0,CARDIAC DISORDERS,945.0,CARDIAC DISORDERS,945.0,N,DOSE NOT CHANGED,NOT RELATED,NOT RECOVERED/NOT RESOLVED,,,,1,,,999,2010-01-25,2010-01-25,,,,,MILD
MAXIS-08,AE,MAXIS-08-408-014,2,URINARY TRACT INFECTION,,UTI,36955.0,URINARY TRACT INFECTION,16805.0,URINARY TRACT INFECTIONS,1979.0,,1082.0,INFECTIONS AND INFESTATIONS,958.0,INFECTIONS AND INFESTATIONS,958.0,N,DOSE NOT CHANGED,NOT RELATED,RECOVERED/RESOLVED,,,,2,,,999,2009-12-29,2009-12-29,2010-01-04,,,,MODERATE
MAXIS-08,AE,MAXIS-08-408-014,3,VAGINAL ITCHING,,VAGINAL ITCHING,24548.0,VULVOVAGINAL PRURITUS,914487.0,VULVOVAGINAL SIGNS AND SYMPTOMS,2408.0,,1227.0,REPRODUCTIVE SYSTEM AND BREAST DISORDERS,968.0,REPRODUCTIVE SYSTEM AND BREAST DISORDERS,968.0,N,DOSE NOT CHANGED,POSSIBLY RELATED,NOT RECOVERED/NOT RESOLVED,,,,1,,,999,2009-12-09,2009-12-09,,,,,MILD
MAXIS-08,AE,MAXIS-08-408-014,4,FUNGAL INFECTION/VAGINAL AREA,,,,VAGINAL INFECTION,16827.0,FEMALE REPRODUCTIVE TRACT INFECTIONS,1975.0,,1082.0,INFECTIONS AND INFESTATIONS,958.0,INFECTIONS AND INFESTATIONS,958.0,N,DOSE NOT CHANGED,NOT RELATED,NOT RECOVERED/NOT RESOLVED,,,,2,,,999,2009-12-08,2009-12-08,,,,,MODERATE
MAXIS-08,AE,MAXIS-08-408-014,5,COLD SENSITIVITY IN HANDS,,SENSATION OF COLD,29823.0,FEELING COLD,6340.0,FEELINGS AND SENSATIONS NEC,1982319.0,,1195.0,GENERAL DISORDERS AND ADMINISTRATION SITE CONDITIONS,963.0,GENERAL DISORDERS AND ADMINISTRATION SITE CONDITIONS,963.0,N,DOSE NOT CHANGED,PROBABLY RELATED,NOT RECOVERED/NOT RESOLVED,,,,1,,,999,2009-12-01,2009-12-01,,,,,MILD
MAXIS-08,AE,MAXIS-08-408-014,6,HEADACHE,,,,HEADACHE,14964.0,HEADACHES NEC,2516.0,,1111.0,NERVOUS SYSTEM DISORDERS,948.0,NERVOUS SYSTEM DISORDERS,948.0,N,DOSE NOT CHANGED,UNLIKELY RELATED,RECOVERED/RESOLVED,,,,1,,,999,2009-11-11,2009-11-11,2009-11-11,,,,MILD
MAXIS-08,AE,MAXIS-08-408-014,7,SOLE-HYPERKERATOTIC ON THE RIGHT FOOT,,,,HYPERKERATOSIS,3334.0,HYPERKERATOSES,1358.0,,1052.0,SKIN AND SUBCUTANEOUS TISSUE DISORDERS,954.0,SKIN AND SUBCUTANEOUS TISSUE DISORDERS,954.0,N,DOSE NOT CHANGED,NOT RELATED,NOT RECOVERED/NOT RESOLVED,,,,1,,,999,2009-12-08,2009-12-08,,,,,MILD
MAXIS-08,AE,MAXIS-08-408-014,8,RIGHT ABD QUADRANT DISCOMFORT,,RIGHT UPPER QUADRANT PAIN,38661.0,ABDOMINAL PAIN UPPER,2987.0,GASTROINTESTINAL AND ABDOMINAL PAINS (EXCL ORAL AND THROAT),1942.0,,1137.0,GASTROINTESTINAL DISORDERS,952.0,GASTROINTESTINAL DISORDERS,952.0,N,DOSE NOT CHANGED,NOT RELATED,RECOVERED/RESOLVED,,,,1,,,999,2009-12-29,2009-12-29,2009-12-30,,,,MILD
MAXIS-08,AE,MAXIS-08-408-014,9,GROSS HEMATURIA,,HEMATURIA,39458.0,HAEMATURIA,11280.0,URINARY ABNORMALITIES,2199.0,,1138.0,RENAL AND URINARY DISORDERS,953.0,RENAL AND URINARY DISORDERS,953.0,N,DOSE NOT CHANGED,NOT RELATED,RECOVERED/RESOLVED,,,,2,,,999,2010-01-05,2010-01-05,2010-01-06,,,,MODERATE
MAXIS-08,AE,MAXIS-08-408-014,10,RECTAL PAIN,,RECTAL PAIN,38724.0,PROCTALGIA,3585.0,ANAL AND RECTAL PAINS,1917.0,,1126.0,GASTROINTESTINAL DISORDERS,952.0,GASTROINTESTINAL DISORDERS,952.0,N,DOSE NOT CHANGED,NOT RELATED,RECOVERED/RESOLVED,,,,3,,,999,2009-11-18,2009-11-18,2009-11-18,,,,SEVERE
MAXIS-08,AE,MAXIS-08-408-014,11,PARESTHESIA (FEET/HAND),,PARESTHESIA,39002.0,PARAESTHESIA,12682.0,PARAESTHESIAS AND DYSAESTHESIAS,2534.0,,1115.0,NERVOUS SYSTEM DISORDERS,948.0,NERVOUS SYSTEM DISORDERS,948.0,N,DOSE NOT CHANGED,POSSIBLY RELATED,NOT RECOVERED/NOT RESOLVED,,,,1,,,999,2009-12-01,2009-12-01,,,,,MILD
MAXIS-08,AE,MAXIS-08-408-014,12,RECTAL PAIN,,RECTAL PAIN,38724.0,PROCTALGIA,3585.0,ANAL AND RECTAL PAINS,1917.0,,1126.0,GASTROINTESTINAL DISORDERS,952.0,GASTROINTESTINAL DISORDERS,952.0,N,DOSE NOT CHANGED,NOT RELATED,RECOVERED/RESOLVED,,,,1,,,999,2009-11-17,2009-11-17,2009-11-18,,,,MILD
MAXIS-08,AE,MAXIS-08-408-014,13,DIARRHEA,,DIARRHEA,20541.0,DIARRHOEA,16440.0,DIARRHOEA (EXCL INFECTIVE),1914.0,,1228.0,GASTROINTESTINAL DISORDERS,952.0,GASTROINTESTINAL DISORDERS,952.0,N,DOSE NOT CHANGED,POSSIBLY RELATED,RECOVERED/RESOLVED,,,,2,,,999,2009-11-10,2009-11-10,2009-11-17,,,,MODERATE
MAXIS-08,AE,MAXIS-08-408-014,14,LEFT ARM IV SITE PAIN,,,,INFUSION SITE PAIN,13152.0,INFUSION SITE REACTIONS,1982313.0,,1297.0,GENERAL DISORDERS AND ADMINISTRATION SITE CONDITIONS,963.0,GENERAL DISORDERS AND ADMINISTRATION SITE CONDITIONS,963.0,N,DRUG INTERRUPTED,UNLIKELY RELATED,RECOVERED/RESOLVED,,,,1,,,999,2009-11-10,2009-11-10,2009-11-11,,,,MILD
MAXIS-08,AE,MAXIS-08-408-014,15,RIGHT LEG PAIN,,LEG PAIN,37161.0,PAIN IN EXTREMITY,15624.0,MUSCULOSKELETAL AND CONNECTIVE TISSUE PAIN AND DISCOMFORT,1982317.0,,988.0,MUSCULOSKELETAL AND CONNECTIVE TISSUE DISORDERS,955.0,MUSCULOSKELETAL AND CONNECTIVE TISSUE DISORDERS,955.0,N,DOSE NOT CHANGED,NOT RELATED,RECOVERED/RESOLVED,,,,1,,,999,2009-11-04,2009-11-04,2009-11-11,,,,MILD
MAXIS-08,AE,MAXIS-08-408-014,16,BACTERIAL INFECTION (URINARY TRACT INFECTION),,UTI,36955.0,URINARY TRACT INFECTION,16805.0,URINARY TRACT INFECTIONS,1979.0,,1082.0,INFECTIONS AND INFESTATIONS,958.0,INFECTIONS AND INFESTATIONS,958.0,N,DOSE NOT CHANGED,NOT RELATED,RECOVERED/RESOLVED,,,,2,,,999,2009-11-03,2009-11-03,2009-11-17,,,,MODERATE
MAXIS-08,AE,MAXIS-08-408-014,17,DYSURIA,,,,DYSURIA,3203.0,BLADDER AND URETHRAL SYMPTOMS,2200.0,,1138.0,RENAL AND URINARY DISORDERS,953.0,RENAL AND URINARY DISORDERS,953.0,N,DOSE NOT CHANGED,NOT RELATED,RECOVERED/RESOLVED,,,,1,,,999,2009-11-02,2009-11-02,2009-11-03,,,,MILD
MAXIS-08,AE,MAXIS-08-408-014,18,RECTAL PAIN,,RECTAL PAIN,38724.0,PROCTALGIA,3585.0,ANAL AND RECTAL PAINS,1917.0,,1126.0,GASTROINTESTINAL DISORDERS,952.0,GASTROINTESTINAL DISORDERS,952.0,N,DOSE NOT CHANGED,NOT RELATED,RECOVERED/RESOLVED,,,,3,,,999,2009-10-28,2009-10-28,2009-10-28,,,,SEVERE
MAXIS-08,AE,MAXIS-08-408-014,19,VOIDED QUARTER SIZE BLOOD CLOT,,HEMATURIA,39458.0,HAEMATURIA,11280.0,URINARY ABNORMALITIES,2199.0,,1138.0,RENAL AND URINARY DISORDERS,953.0,RENAL AND URINARY DISORDERS,953.0,N,DOSE NOT CHANGED,NOT RELATED,RECOVERED/RESOLVED,,,,2,,,999,2009-10-27,2009-10-27,2009-10-28,,,,MODERATE
MAXIS-08,AE,MAXIS-08-408-014,20,RECTAL PAIN,,RECTAL PAIN,38724.0,PROCTALGIA,3585.0,ANAL AND RECTAL PAINS,1917.0,,1126.0,GASTROINTESTINAL DISORDERS,952.0,GASTROINTESTINAL DISORDERS,952.0,Y,DOSE NOT CHANGED,NOT RELATED,RECOVERED/RESOLVED,,,,3,,,999,2010-01-25,2010-01-25,2010-01-29,,,,SEVERE
MAXIS-08,AE,MAXIS-08-408-014,21,INTERMITTENT FATIGUE,,,,FATIGUE,3246.0,ASTHENIC CONDITIONS,2228.0,,1195.0,GENERAL DISORDERS AND ADMINISTRATION SITE CONDITIONS,963.0,GENERAL DISORDERS AND ADMINISTRATION SITE CONDITIONS,963.0,N,DOSE NOT CHANGED,POSSIBLY RELATED,NOT RECOVERED/NOT RESOLVED,,,,1,,,999,2009-11-03,2009-11-03,,,,,MILD
MAXIS-08,AE,MAXIS-08-408-015,1,LEFT MAXILLARY SINUS PAIN,,SINUS PAIN,27836.0,SINUS HEADACHE,3665.0,HEADACHES NEC,2516.0,,1111.0,NERVOUS SYSTEM DISORDERS,948.0,NERVOUS SYSTEM DISORDERS,948.0,N,DOSE NOT CHANGED,POSSIBLY RELATED,NOT RECOVERED/NOT RESOLVED,,,,2,,,999,2010-04-05,2010-04-05,,,,,MODERATE
MAXIS-08,AE,MAXIS-08-408-015,2,NAUSEA,,,,NAUSEA,3478.0,NAUSEA AND VOMITING SYMPTOMS,2916.0,,1137.0,GASTROINTESTINAL DISORDERS,952.0,GASTROINTESTINAL DISORDERS,952.0,N,DOSE NOT CHANGED,POSSIBLY RELATED,RECOVERED/RESOLVED,,,,1,,,999,2010-03-30,2010-03-30,2010-04-13,,,,MILD
MAXIS-08,AE,MAXIS-08-408-015,3,COLD SYMPTOMS (COUGH),,,,COUGH,3897.0,COUGHING AND ASSOCIATED SYMPTOMS,2132.0,,1260.0,"RESPIRATORY, THORACIC AND MEDIASTINAL DISORDERS",951.0,"RESPIRATORY, THORACIC AND MEDIASTINAL DISORDERS",951.0,N,DOSE NOT CHANGED,NOT RELATED,NOT RECOVERED/NOT RESOLVED,,,,1,,,999,2010-05-04,2010-05-04,,,,,MILD
MAXIS-08,AE,MAXIS-08-408-015,4,NEUROPATHY IN FINGERS/FEET,,,,NEUROPATHY PERIPHERAL,17827.0,PERIPHERAL NEUROPATHIES NEC,2545.0,,1143.0,NERVOUS SYSTEM DISORDERS,948.0,NERVOUS SYSTEM DISORDERS,948.0,N,DOSE NOT CHANGED,PROBABLY RELATED,NOT RECOVERED/NOT RESOLVED,,,,2,,,999,2010-04-28,2010-04-28,,,,,MODERATE
MAXIS-08,AE,MAXIS-08-408-015,5,OCCASSIONAL FACE (EYE) PAIN,,PAIN EYE,39091.0,EYE PAIN,3240.0,OCULAR DISORDERS NEC,1499.0,,1018.0,EYE DISORDERS,949.0,EYE DISORDERS,949.0,N,DOSE NOT CHANGED,POSSIBLY RELATED,NOT RECOVERED/NOT RESOLVED,,,,1,,,999,2010-04-17,2010-04-17,,,,,MILD
MAXIS-08,AE,MAXIS-08-408-015,6,FATIGUE,,,,FATIGUE,3246.0,ASTHENIC CONDITIONS,2228.0,,1195.0,GENERAL DISORDERS AND ADMINISTRATION SITE CONDITIONS,963.0,GENERAL DISORDERS AND ADMINISTRATION SITE CONDITIONS,963.0,N,DOSE NOT CHANGED,POSSIBLY RELATED,NOT RECOVERED/NOT RESOLVED,,,,2,,,999,2010-04-17,2010-04-17,,,,,MODERATE
MAXIS-08,AE,MAXIS-08-408-015,7,INTERMITTENT NAUSEA,,,,NAUSEA,3478.0,NAUSEA AND VOMITING SYMPTOMS,2916.0,,1137.0,GASTROINTESTINAL DISORDERS,952.0,GASTROINTESTINAL DISORDERS,952.0,N,DOSE NOT CHANGED,PROBABLY RELATED,NOT RECOVERED/NOT RESOLVED,,,,1,,,999,2010-04-18,2010-04-18,,,,,MILD
MAXIS-08,AE,MAXIS-08-408-015,8,INTERMITTENT CONSTIPATION,,,,CONSTIPATION,3143.0,GASTROINTESTINAL ATONIC AND HYPOMOTILITY DISORDERS NEC,1346.0,,1228.0,GASTROINTESTINAL DISORDERS,952.0,GASTROINTESTINAL DISORDERS,952.0,N,DOSE NOT CHANGED,PROBABLY RELATED,NOT RECOVERED/NOT RESOLVED,,,,1,,,999,2010-04-17,2010-04-17,,,,,MILD
MAXIS-08,AE,MAXIS-08-408-015,9,THROAT MILDLY REDDENED,,RED THROAT,48779.0,PHARYNGEAL ERYTHEMA,14382.0,PHARYNGEAL DISORDERS (EXCL INFECTIONS AND NEOPLASMS),1560.0,,986.0,"RESPIRATORY, THORACIC AND MEDIASTINAL DISORDERS",951.0,"RESPIRATORY, THORACIC AND MEDIASTINAL DISORDERS",951.0,N,DOSE NOT CHANGED,POSSIBLY RELATED,RECOVERED/RESOLVED,,,,1,,,999,2010-04-27,2010-04-27,2010-04-28,,,,MILD
MAXIS-08,AE,MAXIS-08-408-015,10,INTOLERANCE TO COLD IN FINGERS,,COLD INTOLERANCE,24865.0,TEMPERATURE INTOLERANCE,14391.0,FEELINGS AND SENSATIONS NEC,1982319.0,,1195.0,GENERAL DISORDERS AND ADMINISTRATION SITE CONDITIONS,963.0,GENERAL DISORDERS AND ADMINISTRATION SITE CONDITIONS,963.0,N,DOSE NOT CHANGED,POSSIBLY RELATED,NOT RECOVERED/NOT RESOLVED,,,,2,,,999,2010-04-05,2010-04-05,,,,,MODERATE
MAXIS-08,AE,MAXIS-08-408-015,11,ANXIETY,,,,ANXIETY,14721.0,ANXIETY SYMPTOMS,1529.0,,1027.0,PSYCHIATRIC DISORDERS,969.0,PSYCHIATRIC DISORDERS,969.0,N,DOSE NOT CHANGED,NOT RELATED,NOT RECOVERED/NOT RESOLVED,,,,1,,,999,2010-04-14,2010-04-14,,,,,MILD
MAXIS-08,AE,MAXIS-08-408-015,12,ANEMIA,,ANEMIA,20088.0,ANAEMIA,16270.0,ANAEMIAS NEC,1437.0,,971.0,BLOOD AND LYMPHATIC SYSTEM DISORDERS,947.0,BLOOD AND LYMPHATIC SYSTEM DISORDERS,947.0,N,DOSE NOT CHANGED,NOT RELATED,RECOVERED/RESOLVED,,,,2,,,999,2010-04-02,2010-04-02,2010-04-06,,,,MODERATE
MAXIS-08,AE,MAXIS-08-408-015,13,LOWER EXTREMITY COLDNESS,,COLDNESS OF LOWER EXTREMITIES,35686.0,PERIPHERAL COLDNESS,3544.0,"PERIPHERAL VASOCONSTRICTION, NECROSIS AND VASCULAR INSUFFICIENCY",1509.0,,1118.0,VASCULAR DISORDERS,962.0,VASCULAR DISORDERS,962.0,N,DOSE NOT CHANGED,NOT RELATED,NOT RECOVERED/NOT RESOLVED,,,,1,,,999,2010-04-05,2010-04-05,,,,,MILD
MAXIS-08,AE,MAXIS-08-408-015,14,LEFT MAXILLARY SINUS NUMBNESS,,NUMBNESS,21186.0,HYPOAESTHESIA,3350.0,SENSORY ABNORMALITIES NEC,2536.0,,1115.0,NERVOUS SYSTEM DISORDERS,948.0,NERVOUS SYSTEM DISORDERS,948.0,N,DOSE NOT CHANGED,POSSIBLY RELATED,NOT RECOVERED/NOT RESOLVED,,,,2,,,999,2010-04-05,2010-04-05,,,,,MODERATE
MAXIS-08,AE,MAXIS-08-408-015,15,CONSTIPATION,,,,CONSTIPATION,3143.0,GASTROINTESTINAL ATONIC AND HYPOMOTILITY DISORDERS NEC,1346.0,,1228.0,GASTROINTESTINAL DISORDERS,952.0,GASTROINTESTINAL DISORDERS,952.0,N,DOSE NOT CHANGED,UNLIKELY RELATED,RECOVERED/RESOLVED,,,,1,,,999,2010-03-31,2010-03-31,2010-03-31,,,,MILD
MAXIS-08,AE,MAXIS-08-408-015,16,TASTE ALTERED,,TASTE ALTERED,24908.0,DYSGEUSIA,12606.0,SENSORY ABNORMALITIES NEC,2536.0,,1115.0,NERVOUS SYSTEM DISORDERS,948.0,NERVOUS SYSTEM DISORDERS,948.0,N,DOSE NOT CHANGED,POSSIBLY RELATED,RECOVERED/RESOLVED,,,,1,,,999,2010-03-31,2010-03-31,2010-04-02,,,,MILD
MAXIS-08,AE,MAXIS-08-408-016,1,TRANSIENT FEVER,,FEVER,20707.0,PYREXIA,3601.0,FEBRILE DISORDERS,2220.0,,1140.0,GENERAL DISORDERS AND ADMINISTRATION SITE CONDITIONS,963.0,GENERAL DISORDERS AND ADMINISTRATION SITE CONDITIONS,963.0,N,DOSE NOT CHANGED,POSSIBLY RELATED,RECOVERED/RESOLVED,,,,1,,,999,2010-06-30,2010-06-30,2010-07-03,,,,MILD
MAXIS-08,AE,MAXIS-08-408-016,2,PHARYNGITIS,,,,PHARYNGITIS,14485.0,UPPER RESPIRATORY TRACT INFECTIONS,2975.0,,1082.0,INFECTIONS AND INFESTATIONS,958.0,INFECTIONS AND INFESTATIONS,958.0,N,DOSE NOT CHANGED,POSSIBLY RELATED,RECOVERED/RESOLVED,,,,1,,,999,2010-06-30,2010-06-30,2010-07-08,,,,MILD
MAXIS-08,AE,MAXIS-08-408-016,3,TRANSIENT EPISODE OF TINGLING IN HANDS,,TINGLING OF EXTREMITY,50229.0,PARAESTHESIA,12682.0,PARAESTHESIAS AND DYSAESTHESIAS,2534.0,,1115.0,NERVOUS SYSTEM DISORDERS,948.0,NERVOUS SYSTEM DISORDERS,948.0,N,DOSE NOT CHANGED,POSSIBLY RELATED,RECOVERED/RESOLVED,,,,1,,,999,2010-06-16,2010-06-16,2010-06-22,,,,MILD
MAXIS-08,AE,MAXIS-08-408-016,4,FEVER (CHILLS),,FEVER CHILLS,20706.0,PYREXIA,3601.0,FEBRILE DISORDERS,2220.0,,1140.0,GENERAL DISORDERS AND ADMINISTRATION SITE CONDITIONS,963.0,GENERAL DISORDERS AND ADMINISTRATION SITE CONDITIONS,963.0,N,DOSE NOT CHANGED,POSSIBLY RELATED,RECOVERED/RESOLVED,,,,1,,,999,2010-06-30,2010-06-30,2010-06-30,,,,MILD
MAXIS-08,AE,MAXIS-08-408-016,5,FEVER,,FEVER,20707.0,PYREXIA,3601.0,FEBRILE DISORDERS,2220.0,,1140.0,GENERAL DISORDERS AND ADMINISTRATION SITE CONDITIONS,963.0,GENERAL DISORDERS AND ADMINISTRATION SITE CONDITIONS,963.0,N,DOSE NOT CHANGED,POSSIBLY RELATED,RECOVERED/RESOLVED,,,,2,,,999,2010-06-30,2010-06-30,2010-06-30,,,,MODERATE
MAXIS-08,AE,MAXIS-08-408-016,6,FACIAL FLUSHING,,FACIAL FLUSHING,36593.0,FLUSHING,3256.0,PERIPHERAL VASCULAR DISORDERS NEC,1699.0,,1068.0,VASCULAR DISORDERS,962.0,VASCULAR DISORDERS,962.0,N,DOSE NOT CHANGED,POSSIBLY RELATED,RECOVERED/RESOLVED,,,,1,,,999,2010-06-30,2010-06-30,2010-07-03,,,,MILD
MAXIS-08,AE,MAXIS-08-408-016,7,ELEVATED AST,,AST INCREASED,20125.0,ASPARTATE AMINOTRANSFERASE INCREASED,3048.0,LIVER FUNCTION ANALYSES,2783.0,,1183.0,INVESTIGATIONS,944.0,INVESTIGATIONS,944.0,N,DOSE NOT CHANGED,POSSIBLY RELATED,RECOVERED/RESOLVED,,,,2,,,999,2010-06-28,2010-06-28,2010-06-29,,,,MODERATE
MAXIS-08,AE,MAXIS-08-408-016,8,INTERMITTENT INSOMNIA,,,,INSOMNIA,12685.0,DISTURBANCES IN INITIATING AND MAINTAINING SLEEP,2759.0,,1275.0,PSYCHIATRIC DISORDERS,969.0,PSYCHIATRIC DISORDERS,969.0,N,DOSE NOT CHANGED,NOT RELATED,RECOVERED/RESOLVED,,,,1,,,999,2010-06-30,2010-06-30,2010-08-10,,,,MILD
MAXIS-08,AE,MAXIS-08-408-016,9,MINOR SKIN ERYTHEMA (CHEST WALL),,SKIN ERYTHEMA,28202.0,ERYTHEMA,12456.0,ERYTHEMAS,1532.0,,1053.0,SKIN AND SUBCUTANEOUS TISSUE DISORDERS,954.0,SKIN AND SUBCUTANEOUS TISSUE DISORDERS,954.0,N,DOSE NOT CHANGED,NOT RELATED,RECOVERED/RESOLVED,,,,1,,,999,2010-07-09,2010-07-09,2010-08-10,,,,MILD
MAXIS-08,AE,MAXIS-08-408-016,10,FATIGUE,,,,FATIGUE,3246.0,ASTHENIC CONDITIONS,2228.0,,1195.0,GENERAL DISORDERS AND ADMINISTRATION SITE CONDITIONS,963.0,GENERAL DISORDERS AND ADMINISTRATION SITE CONDITIONS,963.0,N,DOSE NOT CHANGED,POSSIBLY RELATED,RECOVERED/RESOLVED,,,,1,,,999,2010-07-13,2010-07-13,2010-08-10,,,,MILD
MAXIS-08,AE,MAXIS-08-408-016,11,THROMBOCYTOPENIA,,,,THROMBOCYTOPENIA,3723.0,THROMBOCYTOPENIAS,2427.0,,1054.0,BLOOD AND LYMPHATIC SYSTEM DISORDERS,947.0,BLOOD AND LYMPHATIC SYSTEM DISORDERS,947.0,N,DOSE NOT CHANGED,POSSIBLY RELATED,RECOVERED/RESOLVED,,,,2,,,999,2010-07-08,2010-07-08,2010-07-26,,,,MODERATE
MAXIS-08,AE,MAXIS-08-408-016,12,THROMBOCYTOPENIA,,,,THROMBOCYTOPENIA,3723.0,THROMBOCYTOPENIAS,2427.0,,1054.0,BLOOD AND LYMPHATIC SYSTEM DISORDERS,947.0,BLOOD AND LYMPHATIC SYSTEM DISORDERS,947.0,N,DOSE REDUCED AND INTERRUPTED,POSSIBLY RELATED,RECOVERED/RESOLVED,,,,3,,,999,2010-07-26,2010-07-26,2010-08-10,,,,SEVERE
MAXIS-08,AE,MAXIS-08-408-016,13,FACIAL FLUSHING,,FACIAL FLUSHING,36593.0,FLUSHING,3256.0,PERIPHERAL VASCULAR DISORDERS NEC,1699.0,,1068.0,VASCULAR DISORDERS,962.0,VASCULAR DISORDERS,962.0,N,DOSE NOT CHANGED,POSSIBLY RELATED,RECOVERED/RESOLVED,,,,1,,,999,2010-07-14,2010-07-14,2010-08-10,,,,MILD
MAXIS-08,AE,MAXIS-08-408-016,14,FEVER,,FEVER,20707.0,PYREXIA,3601.0,FEBRILE DISORDERS,2220.0,,1140.0,GENERAL DISORDERS AND ADMINISTRATION SITE CONDITIONS,963.0,GENERAL DISORDERS AND ADMINISTRATION SITE CONDITIONS,963.0,N,DOSE NOT CHANGED,POSSIBLY RELATED,RECOVERED/RESOLVED,,,,1,,,999,2010-07-14,2010-07-14,2010-07-14,,,,MILD
MAXIS-08,AE,MAXIS-08-408-016,15,ELEVATED AST,,AST INCREASED,20125.0,ASPARTATE AMINOTRANSFERASE INCREASED,3048.0,LIVER FUNCTION ANALYSES,2783.0,,1183.0,INVESTIGATIONS,944.0,INVESTIGATIONS,944.0,N,DOSE NOT CHANGED,POSSIBLY RELATED,RECOVERED/RESOLVED,,,,2,,,999,2010-07-08,2010-07-08,2010-08-10,,,,MODERATE
MAXIS-08,AE,MAXIS-08-408-016,16,COLD INTOLERANCE TO TOUCH (FINGERS),,COLD INTOLERANCE,24865.0,TEMPERATURE INTOLERANCE,14391.0,FEELINGS AND SENSATIONS NEC,1982319.0,,1195.0,GENERAL DISORDERS AND ADMINISTRATION SITE CONDITIONS,963.0,GENERAL DISORDERS AND ADMINISTRATION SITE CONDITIONS,963.0,N,DOSE NOT CHANGED,POSSIBLY RELATED,RECOVERED/RESOLVED,,,,1,,,999,2010-07-13,2010-07-13,2010-08-10,,,,MILD
MAXIS-08,AE,MAXIS-08-408-016,17,LYMPHOPENIA,,,,LYMPHOPENIA,3424.0,LEUKOPENIAS NEC,2436.0,,1182.0,BLOOD AND LYMPHATIC SYSTEM DISORDERS,947.0,BLOOD AND LYMPHATIC SYSTEM DISORDERS,947.0,N,DOSE NOT CHANGED,POSSIBLY RELATED,NOT RECOVERED/NOT RESOLVED,,,,2,,,999,2010-07-08,2010-07-08,,,,,MODERATE
MAXIS-08,AE,MAXIS-08-408-016,18,FATIGUE,,,,FATIGUE,3246.0,ASTHENIC CONDITIONS,2228.0,,1195.0,GENERAL DISORDERS AND ADMINISTRATION SITE CONDITIONS,963.0,GENERAL DISORDERS AND ADMINISTRATION SITE CONDITIONS,963.0,N,DOSE NOT CHANGED,POSSIBLY RELATED,RECOVERED/RESOLVED,,,,1,,,999,2010-06-17,2010-06-17,2010-06-17,,,,MILD
MAXIS-08,AE,MAXIS-08-408-002,1,SEVERE BACK PAIN,,,,BACK PAIN,3060.0,MUSCULOSKELETAL AND CONNECTIVE TISSUE PAIN AND DISCOMFORT,1982317.0,,988.0,MUSCULOSKELETAL AND CONNECTIVE TISSUE DISORDERS,955.0,MUSCULOSKELETAL AND CONNECTIVE TISSUE DISORDERS,955.0,N,DOSE NOT CHANGED,NOT RELATED,NOT RECOVERED/NOT RESOLVED,,,,3,,,999,2009-01-31,2009-01-31,,,,,SEVERE
MAXIS-08,AE,MAXIS-08-408-002,2,SWOLLEN LEG (PAIN),,SWELLING OF LEGS,27665.0,OEDEMA PERIPHERAL,3496.0,OEDEMA NEC,2236.0,,1195.0,GENERAL DISORDERS AND ADMINISTRATION SITE CONDITIONS,963.0,GENERAL DISORDERS AND ADMINISTRATION SITE CONDITIONS,963.0,N,DOSE NOT CHANGED,NOT RELATED,RECOVERED/RESOLVED,,,,2,,,999,2009-01-04,2009-01-04,2009-01-13,,,,MODERATE
MAXIS-08,AE,MAXIS-08-408-002,3,FEW LEFT BASE CRACKLES,,CRACKLES,26360.0,CREPITATIONS,16989.0,GENERAL SIGNS AND SYMPTOMS NEC,2237.0,,1195.0,GENERAL DISORDERS AND ADMINISTRATION SITE CONDITIONS,963.0,GENERAL DISORDERS AND ADMINISTRATION SITE CONDITIONS,963.0,N,DOSE NOT CHANGED,NOT RELATED,RECOVERED/RESOLVED,,,,1,,,999,2008-12-30,2008-12-30,2009-01-06,,,,MILD
MAXIS-08,AE,MAXIS-08-408-002,4,"FEVER, GRADE 1",,SLIGHT FEVER,35691.0,PYREXIA,3601.0,FEBRILE DISORDERS,2220.0,,1140.0,GENERAL DISORDERS AND ADMINISTRATION SITE CONDITIONS,963.0,GENERAL DISORDERS AND ADMINISTRATION SITE CONDITIONS,963.0,N,DOSE NOT CHANGED,NOT RELATED,RECOVERED/RESOLVED,,,,1,,,999,2009-01-20,2009-01-20,2009-01-20,,,,MILD
MAXIS-08,AE,MAXIS-08-408-002,5,THROMBOCYTOPENIA,,,,THROMBOCYTOPENIA,3723.0,THROMBOCYTOPENIAS,2427.0,,1054.0,BLOOD AND LYMPHATIC SYSTEM DISORDERS,947.0,BLOOD AND LYMPHATIC SYSTEM DISORDERS,947.0,N,DOSE NOT CHANGED,POSSIBLY RELATED,RECOVERED/RESOLVED,,,,2,,,999,2009-01-27,2009-01-27,2009-02-02,,,,MODERATE
MAXIS-08,AE,MAXIS-08-408-002,6,HYPOALBUMINEMIA,,HYPOALBUMINEMIA,39256.0,HYPOALBUMINAEMIA,13174.0,PROTEIN METABOLISM DISORDERS NEC,2922.0,,1289.0,METABOLISM AND NUTRITION DISORDERS,957.0,METABOLISM AND NUTRITION DISORDERS,957.0,N,DOSE NOT CHANGED,NOT RELATED,RECOVERED/RESOLVED,,,,2,,,999,2008-12-30,2008-12-30,2009-02-02,,,,MODERATE
MAXIS-08,AE,MAXIS-08-408-002,7,DISEASE PROGRESSION,,,,DISEASE PROGRESSION,18048.0,GENERAL SIGNS AND SYMPTOMS NEC,2237.0,,1195.0,GENERAL DISORDERS AND ADMINISTRATION SITE CONDITIONS,963.0,GENERAL DISORDERS AND ADMINISTRATION SITE CONDITIONS,963.0,Y,DOSE NOT CHANGED,NOT RELATED,FATAL,,,,5,,,999,2009-02-13,2009-02-13,2009-02-18,,,,FATAL
MAXIS-08,AE,MAXIS-08-408-002,8,ABDOMINAL PAIN,,,,ABDOMINAL PAIN,16293.0,GASTROINTESTINAL AND ABDOMINAL PAINS (EXCL ORAL AND THROAT),1942.0,,1137.0,GASTROINTESTINAL DISORDERS,952.0,GASTROINTESTINAL DISORDERS,952.0,Y,DOSE NOT CHANGED,NOT RELATED,NOT RECOVERED/NOT RESOLVED,,,,3,,,999,2009-02-13,2009-02-13,,,,,SEVERE
MAXIS-08,AE,MAXIS-08-408-002,9,LETHARGY,,,,LETHARGY,3412.0,DISTURBANCES IN CONSCIOUSNESS NEC,2530.0,,1115.0,NERVOUS SYSTEM DISORDERS,948.0,NERVOUS SYSTEM DISORDERS,948.0,Y,DOSE NOT CHANGED,NOT RELATED,NOT RECOVERED/NOT RESOLVED,,,,3,,,999,2009-02-13,2009-02-13,,,,,SEVERE
MAXIS-08,AE,MAXIS-08-408-002,10,LEG EDEMA,,LEG EDEMA,56613.0,OEDEMA PERIPHERAL,3496.0,OEDEMA NEC,2236.0,,1195.0,GENERAL DISORDERS AND ADMINISTRATION SITE CONDITIONS,963.0,GENERAL DISORDERS AND ADMINISTRATION SITE CONDITIONS,963.0,N,DOSE NOT CHANGED,NOT RELATED,NOT RECOVERED/NOT RESOLVED,,,,2,,,999,2009-02-02,2009-02-02,,,,,MODERATE
MAXIS-08,AE,MAXIS-08-408-002,11,HYPERBILIRUBINEMIA,,HYPERBILIRUBINEMIA,39339.0,HYPERBILIRUBINAEMIA,5156.0,CHOLESTASIS AND JAUNDICE,1666.0,,1029.0,HEPATOBILIARY DISORDERS,967.0,HEPATOBILIARY DISORDERS,967.0,Y,DOSE NOT CHANGED,NOT RELATED,NOT RECOVERED/NOT RESOLVED,,,,4,,,999,2009-02-13,2009-02-13,,,,,LIFE THREATENING
MAXIS-08,AE,MAXIS-08-408-002,12,ELEVATED AST,,AST INCREASED,20125.0,ASPARTATE AMINOTRANSFERASE INCREASED,3048.0,LIVER FUNCTION ANALYSES,2783.0,,1183.0,INVESTIGATIONS,944.0,INVESTIGATIONS,944.0,N,DOSE NOT CHANGED,UNLIKELY RELATED,NOT RECOVERED/NOT RESOLVED,,,,3,,,999,2009-02-02,2009-02-02,,,,,SEVERE
MAXIS-08,AE,MAXIS-08-408-002,13,FATIGUE,,,,FATIGUE,3246.0,ASTHENIC CONDITIONS,2228.0,,1195.0,GENERAL DISORDERS AND ADMINISTRATION SITE CONDITIONS,963.0,GENERAL DISORDERS AND ADMINISTRATION SITE CONDITIONS,963.0,N,DOSE NOT CHANGED,POSSIBLY RELATED,NOT RECOVERED/NOT RESOLVED,,,,2,,,999,2009-02-02,2009-02-02,,,,,MODERATE
MAXIS-08,AE,MAXIS-08-408-002,14,HYPOGLYCEMIA,,HYPOGLYCEMIA,39241.0,HYPOGLYCAEMIA,16525.0,HYPOGLYCAEMIC CONDITIONS NEC,1710.0,,1072.0,METABOLISM AND NUTRITION DISORDERS,957.0,METABOLISM AND NUTRITION DISORDERS,957.0,Y,DOSE NOT CHANGED,NOT RELATED,RECOVERED/RESOLVED,,,,3,,,999,2009-02-13,2009-02-13,2009-02-14,,,,SEVERE
MAXIS-08,AE,MAXIS-08-408-002,15,WEAKNESS,,WEAKNESS,28093.0,ASTHENIA,3052.0,ASTHENIC CONDITIONS,2228.0,,1195.0,GENERAL DISORDERS AND ADMINISTRATION SITE CONDITIONS,963.0,GENERAL DISORDERS AND ADMINISTRATION SITE CONDITIONS,963.0,Y,DOSE NOT CHANGED,NOT RELATED,NOT RECOVERED/NOT RESOLVED,,,,3,,,999,2009-02-13,2009-02-13,,,,,SEVERE
MAXIS-08,AE,MAXIS-08-408-002,16,HYPERBILIRUBINEMIA,,HYPERBILIRUBINEMIA,39339.0,HYPERBILIRUBINAEMIA,5156.0,CHOLESTASIS AND JAUNDICE,1666.0,,1029.0,HEPATOBILIARY DISORDERS,967.0,HEPATOBILIARY DISORDERS,967.0,N,DOSE NOT CHANGED,UNLIKELY RELATED,RECOVERED/RESOLVED WITH SEQUELAE,,,,3,,,999,2009-02-02,2009-02-02,2009-02-13,,,,SEVERE
MAXIS-08,AE,MAXIS-08-408-002,17,BLOOD IN STOOL,,BLOOD IN STOOL,36847.0,HAEMATOCHEZIA,12595.0,NON-SITE SPECIFIC GASTROINTESTINAL HAEMORRHAGES,1937.0,,1134.0,GASTROINTESTINAL DISORDERS,952.0,GASTROINTESTINAL DISORDERS,952.0,N,DOSE NOT CHANGED,NOT RELATED,NOT RECOVERED/NOT RESOLVED,,,,1,,,999,200901,200901,,,,,MILD
MAXIS-08,AE,MAXIS-08-408-002,18,LOSS OF APPETITE,,APPETITE LOST,20178.0,DECREASED APPETITE,17546.0,APPETITE DISORDERS,1664.0,,1063.0,METABOLISM AND NUTRITION DISORDERS,957.0,METABOLISM AND NUTRITION DISORDERS,957.0,N,DOSE NOT CHANGED,POSSIBLY RELATED,RECOVERED/RESOLVED,,,,1,,,999,2008-01-02,2008-01-02,2008-12-30,,,,MILD
MAXIS-08,AE,MAXIS-08-408-002,19,ABDOMINAL PAIN (LEFT LOWER QUADRANT),,LOWER ABDOMINAL PAIN,27796.0,ABDOMINAL PAIN LOWER,2986.0,GASTROINTESTINAL AND ABDOMINAL PAINS (EXCL ORAL AND THROAT),1942.0,,1137.0,GASTROINTESTINAL DISORDERS,952.0,GASTROINTESTINAL DISORDERS,952.0,N,DOSE NOT CHANGED,NOT RELATED,RECOVERED/RESOLVED,,,,2,,,999,2009-01-04,2009-01-04,2009-01-06,,,,MODERATE
MAXIS-08,AE,MAXIS-08-408-002,20,FEVER,,FEVER,20707.0,PYREXIA,3601.0,FEBRILE DISORDERS,2220.0,,1140.0,GENERAL DISORDERS AND ADMINISTRATION SITE CONDITIONS,963.0,GENERAL DISORDERS AND ADMINISTRATION SITE CONDITIONS,963.0,N,DOSE NOT CHANGED,POSSIBLY RELATED,RECOVERED/RESOLVED,,,,1,,,999,2009-01-06,2009-01-06,2009-01-06,,,,MILD
MAXIS-08,AE,MAXIS-08-408-002,21,UPPER QUADRANT ABDOMINAL PAIN,,UPPER ABDOMINAL PAIN,28159.0,ABDOMINAL PAIN UPPER,2987.0,GASTROINTESTINAL AND ABDOMINAL PAINS (EXCL ORAL AND THROAT),1942.0,,1137.0,GASTROINTESTINAL DISORDERS,952.0,GASTROINTESTINAL DISORDERS,952.0,N,DOSE NOT CHANGED,NOT RELATED,RECOVERED/RESOLVED,,,,1,,,999,200901,200901,2009-01-13,,,,MILD
MAXIS-08,AE,MAXIS-08-408-002,22,THROMBOCYTOPENIA,,,,THROMBOCYTOPENIA,3723.0,THROMBOCYTOPENIAS,2427.0,,1054.0,BLOOD AND LYMPHATIC SYSTEM DISORDERS,947.0,BLOOD AND LYMPHATIC SYSTEM DISORDERS,947.0,N,DOSE NOT CHANGED,POSSIBLY RELATED,RECOVERED/RESOLVED,,,,2,,,999,2009-01-13,2009-01-13,2009-01-20,,,,MODERATE
MAXIS-08,AE,MAXIS-08-408-002,23,HYPERBILIRUBINEMIA,,HYPERBILIRUBINEMIA,39339.0,HYPERBILIRUBINAEMIA,5156.0,CHOLESTASIS AND JAUNDICE,1666.0,,1029.0,HEPATOBILIARY DISORDERS,967.0,HEPATOBILIARY DISORDERS,967.0,N,DRUG INTERRUPTED,POSSIBLY RELATED,RECOVERED/RESOLVED WITH SEQUELAE,,,,2,,,999,2009-01-27,2009-01-27,2009-02-02,,,,MODERATE
MAXIS-08,AE,MAXIS-08-408-003,1,HYPONATREMIA,,HYPONATREMIA,39232.0,HYPONATRAEMIA,3360.0,SODIUM IMBALANCE,2245.0,,1151.0,METABOLISM AND NUTRITION DISORDERS,957.0,METABOLISM AND NUTRITION DISORDERS,957.0,N,DOSE NOT CHANGED,PROBABLY RELATED,RECOVERED/RESOLVED,,,,1,,,999,2009-02-02,2009-02-02,2009-02-27,,,,MILD
MAXIS-08,AE,MAXIS-08-408-003,2,DECREASED BREATH SOUNDS,,BREATH SOUNDS DECREASED,29892.0,BREATH SOUNDS ABNORMAL,19804.0,PHYSICAL EXAMINATION PROCEDURES,2816.0,,1293.0,INVESTIGATIONS,944.0,INVESTIGATIONS,944.0,N,DOSE NOT CHANGED,NOT RELATED,NOT RECOVERED/NOT RESOLVED,,,,1,,,999,2009-01-27,2009-01-27,,,,,MILD
MAXIS-08,AE,MAXIS-08-408-003,3,HYPERBILIRUBINEMIA,,HYPERBILIRUBINEMIA,39339.0,HYPERBILIRUBINAEMIA,5156.0,CHOLESTASIS AND JAUNDICE,1666.0,,1029.0,HEPATOBILIARY DISORDERS,967.0,HEPATOBILIARY DISORDERS,967.0,N,DOSE NOT CHANGED,POSSIBLY RELATED,RECOVERED/RESOLVED,,,,2,,,999,2009-02-02,2009-02-02,2009-02-27,,,,MODERATE
MAXIS-08,AE,MAXIS-08-408-003,4,ELEVATED ALT,,,,ALANINE AMINOTRANSFERASE INCREASED,5149.0,LIVER FUNCTION ANALYSES,2783.0,,1183.0,INVESTIGATIONS,944.0,INVESTIGATIONS,944.0,N,DRUG WITHDRAWN,UNLIKELY RELATED,RECOVERED/RESOLVED,,,,2,,,999,2009-02-02,2009-02-02,2009-02-27,,,,MODERATE
MAXIS-08,AE,MAXIS-08-408-003,5,INSOMNIA,,,,INSOMNIA,12685.0,DISTURBANCES IN INITIATING AND MAINTAINING SLEEP,2759.0,,1275.0,PSYCHIATRIC DISORDERS,969.0,PSYCHIATRIC DISORDERS,969.0,N,DOSE NOT CHANGED,POSSIBLY RELATED,RECOVERED/RESOLVED,,,,1,,,999,2009-01-27,2009-01-27,2009-01-28,,,,MILD
MAXIS-08,AE,MAXIS-08-408-003,6,PORT-A-CATH MALFUNCTION,,,,DEVICE MALFUNCTION,19273.0,DEVICE MALFUNCTION EVENTS NEC,2072856.0,,2071148.0,GENERAL DISORDERS AND ADMINISTRATION SITE CONDITIONS,963.0,GENERAL DISORDERS AND ADMINISTRATION SITE CONDITIONS,963.0,N,DRUG INTERRUPTED,NOT RELATED,RECOVERED/RESOLVED,,,,2,,,999,2009-01-27,2009-01-27,2009-01-28,,,,MODERATE
MAXIS-08,AE,MAXIS-08-408-003,7,ELEVATED AST,,,,ASPARTATE AMINOTRANSFERASE INCREASED,3048.0,LIVER FUNCTION ANALYSES,2783.0,,1183.0,INVESTIGATIONS,944.0,INVESTIGATIONS,944.0,N,DOSE NOT CHANGED,UNLIKELY RELATED,RECOVERED/RESOLVED,,,,3,,,999,2009-02-02,2009-02-02,2009-02-27,,,,SEVERE
MAXIS-08,AE,MAXIS-08-408-004,1,INTERMITTENT CONSTIPATION,,,,CONSTIPATION,3143.0,GASTROINTESTINAL ATONIC AND HYPOMOTILITY DISORDERS NEC,1346.0,,1228.0,GASTROINTESTINAL DISORDERS,952.0,GASTROINTESTINAL DISORDERS,952.0,N,DOSE NOT CHANGED,NOT RELATED,RECOVERED/RESOLVED,,,,1,,,999,2009-04-08,2009-04-08,2009-04-10,,,,MILD
MAXIS-08,AE,MAXIS-08-408-004,2,INTERMITTENT CONSTIPATION,,,,CONSTIPATION,3143.0,GASTROINTESTINAL ATONIC AND HYPOMOTILITY DISORDERS NEC,1346.0,,1228.0,GASTROINTESTINAL DISORDERS,952.0,GASTROINTESTINAL DISORDERS,952.0,N,DOSE NOT CHANGED,NOT RELATED,NOT RECOVERED/NOT RESOLVED,,,,1,,,999,2009-06-10,2009-06-10,,,,,MILD
MAXIS-08,AE,MAXIS-08-408-004,3,INTERMITTENT FATIGUE,,,,FATIGUE,3246.0,ASTHENIC CONDITIONS,2228.0,,1195.0,GENERAL DISORDERS AND ADMINISTRATION SITE CONDITIONS,963.0,GENERAL DISORDERS AND ADMINISTRATION SITE CONDITIONS,963.0,N,DOSE NOT CHANGED,NOT RELATED,RECOVERED/RESOLVED,,,,1,,,999,2009-04-21,2009-04-21,2009-06-16,,,,MILD
MAXIS-08,AE,MAXIS-08-408-004,4,CONSTIPATION,,,,CONSTIPATION,3143.0,GASTROINTESTINAL ATONIC AND HYPOMOTILITY DISORDERS NEC,1346.0,,1228.0,GASTROINTESTINAL DISORDERS,952.0,GASTROINTESTINAL DISORDERS,952.0,N,DOSE NOT CHANGED,NOT RELATED,RECOVERED/RESOLVED,,,,2,,,999,2009-04-23,2009-04-23,2009-04-28,,,,MODERATE
MAXIS-08,AE,MAXIS-08-408-004,5,INCREASE NUMBNESS BILATERAL TOES,,NUMBNESS IN TOES,47972.0,HYPOAESTHESIA,3350.0,SENSORY ABNORMALITIES NEC,2536.0,,1115.0,NERVOUS SYSTEM DISORDERS,948.0,NERVOUS SYSTEM DISORDERS,948.0,N,DOSE NOT CHANGED,PROBABLY RELATED,RECOVERED/RESOLVED,,,,2,,,999,2009-07-14,2009-07-14,2009-07-22,,,,MODERATE
MAXIS-08,AE,MAXIS-08-408-004,6,EPIGASTRIC DISCOMFORT,,,,EPIGASTRIC DISCOMFORT,12900.0,DYSPEPTIC SIGNS AND SYMPTOMS,1940.0,,1137.0,GASTROINTESTINAL DISORDERS,952.0,GASTROINTESTINAL DISORDERS,952.0,N,DOSE NOT CHANGED,NOT RELATED,NOT RECOVERED/NOT RESOLVED,,,,1,,,999,2009-07-23,2009-07-23,,,,,MILD
MAXIS-08,AE,MAXIS-08-408-004,7,LEFT HIP PAIN,,PAIN IN HIP,22796.0,ARTHRALGIA,3045.0,JOINT RELATED SIGNS AND SYMPTOMS,2418.0,,970.0,MUSCULOSKELETAL AND CONNECTIVE TISSUE DISORDERS,955.0,MUSCULOSKELETAL AND CONNECTIVE TISSUE DISORDERS,955.0,N,DOSE NOT CHANGED,NOT RELATED,RECOVERED/RESOLVED,,,,1,,,999,2009-08-04,2009-08-04,2009-08-11,,,,MILD
MAXIS-08,AE,MAXIS-08-408-004,8,LEFT ILIAC PAIN,,SACRO-ILIAC PAIN,38651.0,ARTHRALGIA,3045.0,JOINT RELATED SIGNS AND SYMPTOMS,2418.0,,970.0,MUSCULOSKELETAL AND CONNECTIVE TISSUE DISORDERS,955.0,MUSCULOSKELETAL AND CONNECTIVE TISSUE DISORDERS,955.0,N,DOSE NOT CHANGED,NOT RELATED,RECOVERED/RESOLVED,,,,1,,,999,2009-06-30,2009-06-30,2009-08-04,,,,MILD
