╔═══════════════════════════════════════════════════════════════════════════════════════╗
║                    MAXIS-08 DM MAPPING DATA AVAILABILITY MATRIX                       ║
║                              SDTM DM Domain Variables                                 ║
╚═══════════════════════════════════════════════════════════════════════════════════════╝

Legend:
  ✅ = Available from DEMO.csv (Ready to map)
  🟢 = Derivable from DEMO.csv (Requires calculation)
  ⚠️  = Requires other SDTM domains (SV/EX/DS)
  🔴 = Critical blocker (External data needed)
  🟡 = Manual review required

═══════════════════════════════════════════════════════════════════════════════════════

IDENTIFIERS (Required)
┌─────────────┬────────────────────────────────────┬──────┬─────────────────────────────┐
│  Variable   │              Label                 │ Core │         Status              │
├─────────────┼────────────────────────────────────┼──────┼─────────────────────────────┤
│  STUDYID    │ Study Identifier                   │ Req  │ ✅ From DEMO.STUDY          │
│  DOMAIN     │ Domain Abbreviation                │ Req  │ ✅ Constant "DM"            │
│  USUBJID    │ Unique Subject Identifier          │ Req  │ 🟢 Derived (STUDY+SITE+PT)  │
│  SUBJID     │ Subject Identifier for Study       │ Req  │ ✅ From DEMO.PT             │
└─────────────┴────────────────────────────────────┴──────┴─────────────────────────────┘

RECORD QUALIFIERS - Site Info (Required)
┌─────────────┬────────────────────────────────────┬──────┬─────────────────────────────┐
│  Variable   │              Label                 │ Core │         Status              │
├─────────────┼────────────────────────────────────┼──────┼─────────────────────────────┤
│  SITEID     │ Study Site Identifier              │ Req  │ 🟢 Extract from INVSITE     │
│  INVID      │ Investigator Identifier            │ Perm │ 🔴 Need site metadata       │
│  INVNAM     │ Investigator Name                  │ Perm │ 🔴 Need site metadata       │
│  COUNTRY    │ Country                            │ Exp  │ 🔴 Need site metadata       │
└─────────────┴────────────────────────────────────┴──────┴─────────────────────────────┘

RECORD QUALIFIERS - Reference Dates (Expected)
┌─────────────┬────────────────────────────────────┬──────┬─────────────────────────────┐
│  Variable   │              Label                 │ Core │         Status              │
├─────────────┼────────────────────────────────────┼──────┼─────────────────────────────┤
│  RFSTDTC    │ Subject Reference Start Date       │ Exp  │ ⚠️  Need SV or EX domain    │
│  RFENDTC    │ Subject Reference End Date         │ Exp  │ ⚠️  Need SV or EX domain    │
│  RFXSTDTC   │ First Study Treatment Date         │ Exp  │ ⚠️  Need EX domain          │
│  RFXENDTC   │ Last Study Treatment Date          │ Exp  │ ⚠️  Need EX domain          │
│  RFICDTC    │ Informed Consent Date              │ Exp  │ ⚠️  Need DS domain          │
│  RFPENDTC   │ End of Participation Date          │ Exp  │ ⚠️  Need DS domain          │
└─────────────┴────────────────────────────────────┴──────┴─────────────────────────────┘

RECORD QUALIFIERS - Birth & Age (Expected)
┌─────────────┬────────────────────────────────────┬──────┬─────────────────────────────┐
│  Variable   │              Label                 │ Core │         Status              │
├─────────────┼────────────────────────────────────┼──────┼─────────────────────────────┤
│  BRTHDTC    │ Date/Time of Birth                 │ Exp  │ ✅ From DEMO.DOB (convert)  │
│  AGE        │ Age                                │ Exp  │ ⚠️  Calc (needs RFSTDTC)    │
│  AGEU       │ Age Units                          │ Exp  │ ✅ Constant "YEARS"         │
│  AGEGR1     │ Age Group 1                        │ Perm │ ⚠️  Derive from AGE         │
└─────────────┴────────────────────────────────────┴──────┴─────────────────────────────┘

RECORD QUALIFIERS - Demographics (Required/Expected)
┌─────────────┬────────────────────────────────────┬──────┬─────────────────────────────┐
│  Variable   │              Label                 │ Core │         Status              │
├─────────────┼────────────────────────────────────┼──────┼─────────────────────────────┤
│  SEX        │ Sex                                │ Req  │ ✅ From DEMO.GENDER         │
│  RACE       │ Race                               │ Perm │ 🟡 From RCE (HISPANIC ISSUE)│
│  ETHNIC     │ Ethnicity                          │ Exp  │ 🟡 Map from RCE             │
└─────────────┴────────────────────────────────────┴──────┴─────────────────────────────┘

SYNONYM QUALIFIERS - Treatment Arms (Required)
┌─────────────┬────────────────────────────────────┬──────┬─────────────────────────────┐
│  Variable   │              Label                 │ Core │         Status              │
├─────────────┼────────────────────────────────────┼──────┼─────────────────────────────┤
│  ARMCD      │ Planned Arm Code                   │ Req  │ 🔴 Need randomization data  │
│  ARM        │ Description of Planned Arm         │ Req  │ 🔴 Need randomization data  │
│  ACTARMCD   │ Actual Arm Code                    │ Perm │ ⚠️  Derive from EX domain   │
│  ACTARM     │ Description of Actual Arm          │ Perm │ ⚠️  Derive from EX domain   │
└─────────────┴────────────────────────────────────┴──────┴─────────────────────────────┘

RECORD QUALIFIERS - Death (Permissible)
┌─────────────┬────────────────────────────────────┬──────┬─────────────────────────────┐
│  Variable   │              Label                 │ Core │         Status              │
├─────────────┼────────────────────────────────────┼──────┼─────────────────────────────┤
│  DTHDTC     │ Date/Time of Death                 │ Perm │ ⚠️  From DS or AE (if died) │
│  DTHFL      │ Subject Death Flag                 │ Perm │ ⚠️  Derive from DTHDTC      │
└─────────────┴────────────────────────────────────┴──────┴─────────────────────────────┘

TIMING VARIABLES (Permissible)
┌─────────────┬────────────────────────────────────┬──────┬─────────────────────────────┐
│  Variable   │              Label                 │ Core │         Status              │
├─────────────┼────────────────────────────────────┼──────┼─────────────────────────────┤
│  DMDTC      │ Date/Time of Collection            │ Perm │ ⚠️  From SV (screening date)│
│  DMDY       │ Study Day of Collection            │ Perm │ ⚠️  Calc (needs RFSTDTC)    │
└─────────────┴────────────────────────────────────┴──────┴─────────────────────────────┘

═══════════════════════════════════════════════════════════════════════════════════════

SUMMARY STATISTICS
┌───────────────────────────────────────┬───────┬────────────┐
│             Category                  │ Count │ Percentage │
├───────────────────────────────────────┼───────┼────────────┤
│ Total DM Variables                    │  29   │   100%     │
│ ✅ Available from DEMO.csv            │   6   │    21%     │
│ 🟢 Derivable from DEMO.csv            │   2   │     7%     │
│ ⚠️  Requires other domains            │  15   │    52%     │
│ 🔴 Requires external metadata         │   4   │    14%     │
│ 🟡 Requires manual review             │   2   │     7%     │
└───────────────────────────────────────┴───────┴────────────┘

REQUIRED VARIABLES STATUS (Critical for Compliance)
┌───────────────────────────────────────┬───────┬────────────┐
│             Status                    │ Count │ Percentage │
├───────────────────────────────────────┼───────┼────────────┤
│ Required Variables (Total)            │   8   │   100%     │
│ ✅ Can populate from DEMO.csv         │   4   │    50%     │
│ 🟢 Derivable from DEMO.csv            │   2   │    25%     │
│ 🔴 Need external data (BLOCKER)       │   2   │    25%     │
└───────────────────────────────────────┴───────┴────────────┘

═══════════════════════════════════════════════════════════════════════════════════════

CRITICAL BLOCKERS (Must Resolve Before Submission)
╔═══════════════════════════════════════════════════════════════════════════════════════╗
║  🔴 BLOCKER #1: ARMCD & ARM (REQUIRED variables)                                      ║
║     Status: Missing from DEMO.csv                                                     ║
║     Impact: Cannot create compliant DM domain without these                           ║
║     Action: Obtain randomization dataset or treatment assignment file                 ║
║     Owner: Clinical Operations / Data Management                                      ║
║     Priority: CRITICAL                                                                ║
╚═══════════════════════════════════════════════════════════════════════════════════════╝

╔═══════════════════════════════════════════════════════════════════════════════════════╗
║  🟡 DATA QUALITY ISSUE: HISPANIC in RACE field                                        ║
║     Status: Incorrect categorization (ethnicity coded as race)                        ║
║     Impact: Non-compliant with CDISC controlled terminology                           ║
║     Affected: All subjects with RCE='HISPANIC'                                        ║
║     Action: Clinical review to determine actual RACE + set ETHNIC properly            ║
║     Owner: Clinical Data Management                                                   ║
║     Priority: HIGH                                                                    ║
╚═══════════════════════════════════════════════════════════════════════════════════════╝

═══════════════════════════════════════════════════════════════════════════════════════

PHASE 1: IMMEDIATE MAPPINGS (Available Now)
┌────────────────────────────────────────────────────────────────────────────────────┐
│  Variables: STUDYID, DOMAIN, SUBJID, SITEID, USUBJID, BRTHDTC, SEX, AGEU         │
│  Source: DEMO.csv                                                                  │
│  Duration: 1-2 hours                                                               │
│  Output: dm_phase1.csv (8 variables, partial dataset)                             │
│  Next: Resolve ARMCD/ARM blocker and race/ethnicity issue                         │
└────────────────────────────────────────────────────────────────────────────────────┘

PHASE 2: INTEGRATION WITH OTHER DOMAINS (Requires SV/EX/DS/TA)
┌────────────────────────────────────────────────────────────────────────────────────┐
│  Requires:                                                                         │
│    - SV (Subject Visits): RFSTDTC, RFENDTC, DMDTC                                 │
│    - EX (Exposure): RFXSTDTC, RFXENDTC, ACTARMCD, ACTARM                          │
│    - DS (Disposition): RFICDTC, RFPENDTC, DTHDTC, DTHFL                           │
│    - TA (Trial Arms) or Randomization: ARMCD, ARM                                 │
│    - Site Metadata: COUNTRY, INVID, INVNAM                                        │
│  Duration: 3-5 days (depends on data availability)                                │
│  Output: dm_complete.xpt (29 variables, submission-ready)                         │
└────────────────────────────────────────────────────────────────────────────────────┘

═══════════════════════════════════════════════════════════════════════════════════════

DATA SOURCES NEEDED
┌─────────────────────────────┬──────────────┬──────────────────────────────────────┐
│         Data Source         │   Priority   │          Variables Enabled           │
├─────────────────────────────┼──────────────┼──────────────────────────────────────┤
│ Randomization Dataset       │   CRITICAL   │ ARMCD, ARM (REQUIRED)                │
│ Visit Tracking (SV)         │     HIGH     │ RFSTDTC, RFENDTC, DMDTC, AGE        │
│ Exposure Data (EX)          │     HIGH     │ RFXSTDTC, RFXENDTC, ACTARMCD        │
│ Disposition (DS)            │    MEDIUM    │ RFICDTC, RFPENDTC, DTHDTC, DTHFL    │
│ Site Metadata File          │    MEDIUM    │ COUNTRY, INVID, INVNAM              │
│ Race Correction from Sites  │     HIGH     │ RACE (for HISPANIC subjects)        │
└─────────────────────────────┴──────────────┴──────────────────────────────────────┘

═══════════════════════════════════════════════════════════════════════════════════════

TRANSFORMATION COMPLEXITY
┌─────────────────────────────┬──────────┬─────────────────────────────────────────┐
│      Transformation         │   Count  │              Examples                   │
├─────────────────────────────┼──────────┼─────────────────────────────────────────┤
│ Direct Mapping              │    4     │ SUBJID=PT, SEX=GENDER                   │
│ Constant Assignment         │    3     │ DOMAIN="DM", AGEU="YEARS"               │
│ String Manipulation         │    2     │ SITEID=substr(INVSITE,6,3)              │
│ Concatenation               │    1     │ USUBJID=STUDY+"-"+SITEID+"-"+PT         │
│ Date Format Conversion      │    1     │ BRTHDTC=ISO8601(DOB)                    │
│ Controlled Term Mapping     │    2     │ RACE (BLACK→BLACK OR AFRICAN AMERICAN)  │
│ Calculation                 │    2     │ AGE, DMDY                               │
│ Cross-Domain Derivation     │   14     │ RFSTDTC from SV, ARMCD from randomize   │
└─────────────────────────────┴──────────┴─────────────────────────────────────────┘

═══════════════════════════════════════════════════════════════════════════════════════

VALIDATION REQUIREMENTS
┌──────────────────────────────────────────────────────────────────────────────────────┐
│  Before declaring DM complete, verify:                                               │
│                                                                                      │
│  ☐ USUBJID is unique (no duplicates)                                                │
│  ☐ Exactly 1 record per subject                                                     │
│  ☐ All 8 REQUIRED variables populated (STUDYID, DOMAIN, USUBJID, SUBJID,           │
│     SITEID, SEX, ARMCD, ARM)                                                        │
│  ☐ All dates in ISO 8601 format (YYYY-MM-DD)                                       │
│  ☐ SEX values from CT (M, F, U, UNDIFFERENTIATED)                                  │
│  ☐ RACE values from CT (proper CDISC terminology)                                  │
│  ☐ ETHNIC values from CT (HISPANIC OR LATINO, NOT HISPANIC OR LATINO, etc.)        │
│  ☐ AGEU = "YEARS" when AGE populated                                               │
│  ☐ Date logic: BRTHDTC < RFSTDTC <= RFENDTC                                        │
│  ☐ USUBJID consistent across all domains                                           │
│  ☐ Pinnacle 21 validation: 0 critical errors                                       │
│  ☐ Define-XML validates successfully                                               │
└──────────────────────────────────────────────────────────────────────────────────────┘

═══════════════════════════════════════════════════════════════════════════════════════

RISK ASSESSMENT
┌─────────────────────────────┬──────────┬──────────────────────────────────────────┐
│           Risk              │ Severity │              Mitigation                  │
├─────────────────────────────┼──────────┼──────────────────────────────────────────┤
│ Randomization data delay    │   HIGH   │ Use interim ARMCD="NOTASSGN"             │
│ HISPANIC race unresolved    │  MEDIUM  │ Use RACE="NOT REPORTED" temporarily      │
│ Visit dates not available   │  MEDIUM  │ Document AGE needs recalculation         │
│ Site metadata missing       │    LOW   │ INVID/COUNTRY are permissible/expected   │
│ Death records not in DS     │    LOW   │ Only affects subjects who died           │
└─────────────────────────────┴──────────┴──────────────────────────────────────────┘

═══════════════════════════════════════════════════════════════════════════════════════

ESTIMATED TIMELINE
┌─────────────┬──────────────────────────────────────────┬──────────────────────────────┐
│    Phase    │                Activity                  │          Duration            │
├─────────────┼──────────────────────────────────────────┼──────────────────────────────┤
│   Day 1     │ Initial mapping (DEMO.csv variables)     │ 2 hours                      │
│   Day 1-2   │ Generate DQ report for HISPANIC race     │ 1 hour                       │
│   Day 2-3   │ Request & receive randomization data     │ 1-2 days (external)          │
│   Day 3-4   │ Clinical review of HISPANIC subjects     │ 1-2 days (external)          │
│   Day 4-5   │ Integrate SV, EX, DS domains             │ 4 hours                      │
│   Day 5-6   │ Final calculations (AGE, DMDY, etc.)     │ 2 hours                      │
│   Day 6-7   │ Validation & QC                          │ 4 hours                      │
│   Day 7     │ Final delivery (dm.xpt)                  │ 1 hour                       │
└─────────────┴──────────────────────────────────────────┴──────────────────────────────┘

Total estimated time: 7 days (includes 2-3 days waiting for external data)
Actual programming time: 14 hours

═══════════════════════════════════════════════════════════════════════════════════════

CONTACT INFORMATION
┌──────────────────────────────┬─────────────────────────────────────────────────────┐
│          For...              │                  Contact...                         │
├──────────────────────────────┼─────────────────────────────────────────────────────┤
│ Randomization data           │ Clinical Operations / Trial Management              │
│ HISPANIC race resolution     │ Clinical Data Management / Medical Monitor          │
│ Visit dates (SV domain)      │ Visit Tracking Team / EDC Administrator             │
│ Site metadata                │ Site Management / Regulatory Affairs                │
│ Specification questions      │ SDTM Lead Programmer                                │
│ Validation issues            │ QC Programmer / Biostatistics                       │
│ FDA submission questions     │ Regulatory Submissions Team                         │
└──────────────────────────────┴─────────────────────────────────────────────────────┘

═══════════════════════════════════════════════════════════════════════════════════════

Document: MAXIS-08_DM_Data_Availability_Matrix.txt
Version: 1.0
Date: 2024-01-15
Study: MAXIS-08
Domain: DM (Demographics)
SDTM Version: 3.4

═══════════════════════════════════════════════════════════════════════════════════════
