{
  "study_metadata": {
    "study_oid": "STUDY.MAXIS-08",
    "study_name": "Study MAXIS-08",
    "study_description": null,
    "protocol_name": "MAXIS-08",
    "metadata_version_oid": "MDV.SDTM.1",
    "define_version": "2.1.0",
    "standard_name": "CDISC-SDTM",
    "standard_version": "3.4",
    "originator": "Sponsor",
    "file_oid": "DEF.SDTM"
  },
  "datasets": [
    {
      "name": "LB",
      "label": "Laboratory Test Results",
      "domain": "LB",
      "class_name": "Findings",
      "structure": "One record per lab test per time point per subject",
      "purpose": "Tabulation",
      "keys": [
        "STUDYID",
        "USUBJID",
        "LBTESTCD",
        "VISITNUM",
        "LBSPEC"
      ],
      "repeating": true,
      "is_reference": false,
      "variables": [
        {
          "name": "STUDYID",
          "label": "Study Identifier",
          "data_type": "text",
          "length": null,
          "significant_digits": null,
          "sas_format": null,
          "core": "Req",
          "origin": "CRF",
          "role": "Identifier",
          "codelist": null,
          "comment": null,
          "derivation_method": null
        },
        {
          "name": "DOMAIN",
          "label": "Domain Abbreviation",
          "data_type": "text",
          "length": null,
          "significant_digits": null,
          "sas_format": null,
          "core": "Req",
          "origin": "CRF",
          "role": "Identifier",
          "codelist": null,
          "comment": null,
          "derivation_method": null
        },
        {
          "name": "USUBJID",
          "label": "Unique Subject Identifier",
          "data_type": "text",
          "length": null,
          "significant_digits": null,
          "sas_format": null,
          "core": "Req",
          "origin": "CRF",
          "role": "Identifier",
          "codelist": null,
          "comment": null,
          "derivation_method": null
        },
        {
          "name": "LBSEQ",
          "label": "Sequence Number",
          "data_type": "integer",
          "length": null,
          "significant_digits": null,
          "sas_format": null,
          "core": "Req",
          "origin": "CRF",
          "role": "Identifier",
          "codelist": null,
          "comment": null,
          "derivation_method": null
        },
        {
          "name": "LBTESTCD",
          "label": "Lab Test or Examination Short Name",
          "data_type": "text",
          "length": null,
          "significant_digits": null,
          "sas_format": null,
          "core": "Req",
          "origin": "CRF",
          "role": "Topic",
          "codelist": "LBTESTCD",
          "comment": null,
          "derivation_method": null
        },
        {
          "name": "LBTEST",
          "label": "Lab Test or Examination Name",
          "data_type": "text",
          "length": null,
          "significant_digits": null,
          "sas_format": null,
          "core": "Req",
          "origin": "CRF",
          "role": "Synonym Qualifier",
          "codelist": "LBTEST",
          "comment": null,
          "derivation_method": null
        },
        {
          "name": "LBCAT",
          "label": "Category for Lab Test",
          "data_type": "text",
          "length": null,
          "significant_digits": null,
          "sas_format": null,
          "core": "Exp",
          "origin": "CRF",
          "role": "Grouping Qualifier",
          "codelist": null,
          "comment": null,
          "derivation_method": null
        },
        {
          "name": "LBORRES",
          "label": "Result or Finding in Original Units",
          "data_type": "text",
          "length": null,
          "significant_digits": null,
          "sas_format": null,
          "core": "Exp",
          "origin": "CRF",
          "role": "Result Qualifier",
          "codelist": null,
          "comment": null,
          "derivation_method": null
        },
        {
          "name": "LBORRESU",
          "label": "Original Units",
          "data_type": "text",
          "length": null,
          "significant_digits": null,
          "sas_format": null,
          "core": "Exp",
          "origin": "CRF",
          "role": "Variable Qualifier",
          "codelist": "UNIT",
          "comment": null,
          "derivation_method": null
        },
        {
          "name": "LBSTRESC",
          "label": "Character Result/Finding in Std Format",
          "data_type": "text",
          "length": null,
          "significant_digits": null,
          "sas_format": null,
          "core": "Exp",
          "origin": "CRF",
          "role": "Result Qualifier",
          "codelist": null,
          "comment": null,
          "derivation_method": null
        },
        {
          "name": "LBSTRESN",
          "label": "Numeric Result/Finding in Standard Units",
          "data_type": "float",
          "length": null,
          "significant_digits": null,
          "sas_format": null,
          "core": "Exp",
          "origin": "CRF",
          "role": "Result Qualifier",
          "codelist": null,
          "comment": null,
          "derivation_method": null
        },
        {
          "name": "LBSTRESU",
          "label": "Standard Units",
          "data_type": "text",
          "length": null,
          "significant_digits": null,
          "sas_format": null,
          "core": "Exp",
          "origin": "CRF",
          "role": "Variable Qualifier",
          "codelist": "UNIT",
          "comment": null,
          "derivation_method": null
        },
        {
          "name": "LBNRIND",
          "label": "Reference Range Indicator",
          "data_type": "text",
          "length": null,
          "significant_digits": null,
          "sas_format": null,
          "core": "Exp",
          "origin": "CRF",
          "role": "Variable Qualifier",
          "codelist": "NRIND",
          "comment": null,
          "derivation_method": null
        },
        {
          "name": "LBSPEC",
          "label": "Specimen Type",
          "data_type": "text",
          "length": null,
          "significant_digits": null,
          "sas_format": null,
          "core": "Exp",
          "origin": "CRF",
          "role": "Record Qualifier",
          "codelist": "SPEC",
          "comment": null,
          "derivation_method": null
        },
        {
          "name": "VISITNUM",
          "label": "Visit Number",
          "data_type": "float",
          "length": null,
          "significant_digits": null,
          "sas_format": null,
          "core": "Exp",
          "origin": "CRF",
          "role": "Timing",
          "codelist": null,
          "comment": null,
          "derivation_method": null
        },
        {
          "name": "VISIT",
          "label": "Visit Name",
          "data_type": "text",
          "length": null,
          "significant_digits": null,
          "sas_format": null,
          "core": "Exp",
          "origin": "CRF",
          "role": "Timing",
          "codelist": null,
          "comment": null,
          "derivation_method": null
        },
        {
          "name": "LBDTC",
          "label": "Date/Time of Specimen Collection",
          "data_type": "datetime",
          "length": null,
          "significant_digits": null,
          "sas_format": null,
          "core": "Exp",
          "origin": "CRF",
          "role": "Timing",
          "codelist": null,
          "comment": null,
          "derivation_method": null
        }
      ]
    },
    {
      "name": "AE",
      "label": "Adverse Events",
      "domain": "AE",
      "class_name": "Events",
      "structure": "One record per adverse event per subject",
      "purpose": "Tabulation",
      "keys": [
        "STUDYID",
        "USUBJID",
        "AESEQ"
      ],
      "repeating": true,
      "is_reference": false,
      "variables": [
        {
          "name": "STUDYID",
          "label": "Study Identifier",
          "data_type": "text",
          "length": null,
          "significant_digits": null,
          "sas_format": null,
          "core": "Req",
          "origin": "CRF",
          "role": "Identifier",
          "codelist": null,
          "comment": null,
          "derivation_method": null
        },
        {
          "name": "DOMAIN",
          "label": "Domain Abbreviation",
          "data_type": "text",
          "length": null,
          "significant_digits": null,
          "sas_format": null,
          "core": "Req",
          "origin": "CRF",
          "role": "Identifier",
          "codelist": null,
          "comment": null,
          "derivation_method": null
        },
        {
          "name": "USUBJID",
          "label": "Unique Subject Identifier",
          "data_type": "text",
          "length": null,
          "significant_digits": null,
          "sas_format": null,
          "core": "Req",
          "origin": "CRF",
          "role": "Identifier",
          "codelist": null,
          "comment": null,
          "derivation_method": null
        },
        {
          "name": "AESEQ",
          "label": "Sequence Number",
          "data_type": "integer",
          "length": null,
          "significant_digits": null,
          "sas_format": null,
          "core": "Req",
          "origin": "CRF",
          "role": "Identifier",
          "codelist": null,
          "comment": null,
          "derivation_method": null
        },
        {
          "name": "AETERM",
          "label": "Reported Term for the Adverse Event",
          "data_type": "text",
          "length": null,
          "significant_digits": null,
          "sas_format": null,
          "core": "Req",
          "origin": "CRF",
          "role": "Topic",
          "codelist": null,
          "comment": null,
          "derivation_method": null
        },
        {
          "name": "AEDECOD",
          "label": "Dictionary-Derived Term",
          "data_type": "text",
          "length": null,
          "significant_digits": null,
          "sas_format": null,
          "core": "Req",
          "origin": "CRF",
          "role": "Synonym Qualifier",
          "codelist": null,
          "comment": null,
          "derivation_method": null
        },
        {
          "name": "AEBODSYS",
          "label": "Body System or Organ Class",
          "data_type": "text",
          "length": null,
          "significant_digits": null,
          "sas_format": null,
          "core": "Exp",
          "origin": "CRF",
          "role": "Record Qualifier",
          "codelist": null,
          "comment": null,
          "derivation_method": null
        },
        {
          "name": "AESEV",
          "label": "Severity/Intensity",
          "data_type": "text",
          "length": null,
          "significant_digits": null,
          "sas_format": null,
          "core": "Perm",
          "origin": "CRF",
          "role": "Record Qualifier",
          "codelist": "AESEV",
          "comment": null,
          "derivation_method": null
        },
        {
          "name": "AESER",
          "label": "Serious Event",
          "data_type": "text",
          "length": null,
          "significant_digits": null,
          "sas_format": null,
          "core": "Exp",
          "origin": "CRF",
          "role": "Record Qualifier",
          "codelist": "NY",
          "comment": null,
          "derivation_method": null
        },
        {
          "name": "AEREL",
          "label": "Causality",
          "data_type": "text",
          "length": null,
          "significant_digits": null,
          "sas_format": null,
          "core": "Perm",
          "origin": "CRF",
          "role": "Record Qualifier",
          "codelist": null,
          "comment": null,
          "derivation_method": null
        },
        {
          "name": "AEACN",
          "label": "Action Taken with Study Treatment",
          "data_type": "text",
          "length": null,
          "significant_digits": null,
          "sas_format": null,
          "core": "Exp",
          "origin": "CRF",
          "role": "Record Qualifier",
          "codelist": "ACN",
          "comment": null,
          "derivation_method": null
        },
        {
          "name": "AEOUT",
          "label": "Outcome of Adverse Event",
          "data_type": "text",
          "length": null,
          "significant_digits": null,
          "sas_format": null,
          "core": "Exp",
          "origin": "CRF",
          "role": "Record Qualifier",
          "codelist": "OUT",
          "comment": null,
          "derivation_method": null
        },
        {
          "name": "AESTDTC",
          "label": "Start Date/Time of Adverse Event",
          "data_type": "datetime",
          "length": null,
          "significant_digits": null,
          "sas_format": null,
          "core": "Exp",
          "origin": "CRF",
          "role": "Timing",
          "codelist": null,
          "comment": null,
          "derivation_method": null
        },
        {
          "name": "AEENDTC",
          "label": "End Date/Time of Adverse Event",
          "data_type": "datetime",
          "length": null,
          "significant_digits": null,
          "sas_format": null,
          "core": "Exp",
          "origin": "CRF",
          "role": "Timing",
          "codelist": null,
          "comment": null,
          "derivation_method": null
        }
      ]
    },
    {
      "name": "CM",
      "label": "Concomitant Medications",
      "domain": "CM",
      "class_name": "Interventions",
      "structure": "One record per recorded medication occurrence per subject",
      "purpose": "Tabulation",
      "keys": [
        "STUDYID",
        "USUBJID",
        "CMSEQ"
      ],
      "repeating": true,
      "is_reference": false,
      "variables": [
        {
          "name": "STUDYID",
          "label": "Study Identifier",
          "data_type": "text",
          "length": null,
          "significant_digits": null,
          "sas_format": null,
          "core": "Req",
          "origin": "CRF",
          "role": "Identifier",
          "codelist": null,
          "comment": null,
          "derivation_method": null
        },
        {
          "name": "DOMAIN",
          "label": "Domain Abbreviation",
          "data_type": "text",
          "length": null,
          "significant_digits": null,
          "sas_format": null,
          "core": "Req",
          "origin": "CRF",
          "role": "Identifier",
          "codelist": null,
          "comment": null,
          "derivation_method": null
        },
        {
          "name": "USUBJID",
          "label": "Unique Subject Identifier",
          "data_type": "text",
          "length": null,
          "significant_digits": null,
          "sas_format": null,
          "core": "Req",
          "origin": "CRF",
          "role": "Identifier",
          "codelist": null,
          "comment": null,
          "derivation_method": null
        },
        {
          "name": "CMSEQ",
          "label": "Sequence Number",
          "data_type": "integer",
          "length": null,
          "significant_digits": null,
          "sas_format": null,
          "core": "Req",
          "origin": "CRF",
          "role": "Identifier",
          "codelist": null,
          "comment": null,
          "derivation_method": null
        },
        {
          "name": "CMTRT",
          "label": "Reported Name of Drug, Med, or Therapy",
          "data_type": "text",
          "length": null,
          "significant_digits": null,
          "sas_format": null,
          "core": "Req",
          "origin": "CRF",
          "role": "Topic",
          "codelist": null,
          "comment": null,
          "derivation_method": null
        },
        {
          "name": "CMDECOD",
          "label": "Standardized Medication Name",
          "data_type": "text",
          "length": null,
          "significant_digits": null,
          "sas_format": null,
          "core": "Exp",
          "origin": "CRF",
          "role": "Synonym Qualifier",
          "codelist": null,
          "comment": null,
          "derivation_method": null
        },
        {
          "name": "CMCAT",
          "label": "Category for Medication",
          "data_type": "text",
          "length": null,
          "significant_digits": null,
          "sas_format": null,
          "core": "Perm",
          "origin": "CRF",
          "role": "Grouping Qualifier",
          "codelist": null,
          "comment": null,
          "derivation_method": null
        },
        {
          "name": "CMDOSE",
          "label": "Dose per Administration",
          "data_type": "float",
          "length": null,
          "significant_digits": null,
          "sas_format": null,
          "core": "Exp",
          "origin": "CRF",
          "role": "Record Qualifier",
          "codelist": null,
          "comment": null,
          "derivation_method": null
        },
        {
          "name": "CMDOSU",
          "label": "Dose Units",
          "data_type": "text",
          "length": null,
          "significant_digits": null,
          "sas_format": null,
          "core": "Exp",
          "origin": "CRF",
          "role": "Variable Qualifier",
          "codelist": "UNIT",
          "comment": null,
          "derivation_method": null
        },
        {
          "name": "CMROUTE",
          "label": "Route of Administration",
          "data_type": "text",
          "length": null,
          "significant_digits": null,
          "sas_format": null,
          "core": "Exp",
          "origin": "CRF",
          "role": "Record Qualifier",
          "codelist": "ROUTE",
          "comment": null,
          "derivation_method": null
        },
        {
          "name": "CMSTDTC",
          "label": "Start Date/Time of Medication",
          "data_type": "datetime",
          "length": null,
          "significant_digits": null,
          "sas_format": null,
          "core": "Exp",
          "origin": "CRF",
          "role": "Timing",
          "codelist": null,
          "comment": null,
          "derivation_method": null
        },
        {
          "name": "CMENDTC",
          "label": "End Date/Time of Medication",
          "data_type": "datetime",
          "length": null,
          "significant_digits": null,
          "sas_format": null,
          "core": "Exp",
          "origin": "CRF",
          "role": "Timing",
          "codelist": null,
          "comment": null,
          "derivation_method": null
        }
      ]
    },
    {
      "name": "VS",
      "label": "Vital Signs",
      "domain": "VS",
      "class_name": "Findings",
      "structure": "One record per vital sign measurement per time point per subject",
      "purpose": "Tabulation",
      "keys": [
        "STUDYID",
        "USUBJID",
        "VSTESTCD",
        "VISITNUM",
        "VSTPTNUM"
      ],
      "repeating": true,
      "is_reference": false,
      "variables": [
        {
          "name": "STUDYID",
          "label": "Study Identifier",
          "data_type": "text",
          "length": null,
          "significant_digits": null,
          "sas_format": null,
          "core": "Req",
          "origin": "CRF",
          "role": "Identifier",
          "codelist": null,
          "comment": null,
          "derivation_method": null
        },
        {
          "name": "DOMAIN",
          "label": "Domain Abbreviation",
          "data_type": "text",
          "length": null,
          "significant_digits": null,
          "sas_format": null,
          "core": "Req",
          "origin": "CRF",
          "role": "Identifier",
          "codelist": null,
          "comment": null,
          "derivation_method": null
        },
        {
          "name": "USUBJID",
          "label": "Unique Subject Identifier",
          "data_type": "text",
          "length": null,
          "significant_digits": null,
          "sas_format": null,
          "core": "Req",
          "origin": "CRF",
          "role": "Identifier",
          "codelist": null,
          "comment": null,
          "derivation_method": null
        },
        {
          "name": "VSSEQ",
          "label": "Sequence Number",
          "data_type": "integer",
          "length": null,
          "significant_digits": null,
          "sas_format": null,
          "core": "Req",
          "origin": "CRF",
          "role": "Identifier",
          "codelist": null,
          "comment": null,
          "derivation_method": null
        },
        {
          "name": "VSTESTCD",
          "label": "Vital Signs Test Short Name",
          "data_type": "text",
          "length": null,
          "significant_digits": null,
          "sas_format": null,
          "core": "Req",
          "origin": "CRF",
          "role": "Topic",
          "codelist": "VSTESTCD",
          "comment": null,
          "derivation_method": null
        },
        {
          "name": "VSTEST",
          "label": "Vital Signs Test Name",
          "data_type": "text",
          "length": null,
          "significant_digits": null,
          "sas_format": null,
          "core": "Req",
          "origin": "CRF",
          "role": "Synonym Qualifier",
          "codelist": "VSTEST",
          "comment": null,
          "derivation_method": null
        },
        {
          "name": "VSORRES",
          "label": "Result or Finding in Original Units",
          "data_type": "text",
          "length": null,
          "significant_digits": null,
          "sas_format": null,
          "core": "Exp",
          "origin": "CRF",
          "role": "Result Qualifier",
          "codelist": null,
          "comment": null,
          "derivation_method": null
        },
        {
          "name": "VSORRESU",
          "label": "Original Units",
          "data_type": "text",
          "length": null,
          "significant_digits": null,
          "sas_format": null,
          "core": "Exp",
          "origin": "CRF",
          "role": "Variable Qualifier",
          "codelist": "VSRESU",
          "comment": null,
          "derivation_method": null
        },
        {
          "name": "VSSTRESC",
          "label": "Character Result/Finding in Std Format",
          "data_type": "text",
          "length": null,
          "significant_digits": null,
          "sas_format": null,
          "core": "Exp",
          "origin": "CRF",
          "role": "Result Qualifier",
          "codelist": null,
          "comment": null,
          "derivation_method": null
        },
        {
          "name": "VSSTRESN",
          "label": "Numeric Result/Finding in Standard Units",
          "data_type": "float",
          "length": null,
          "significant_digits": null,
          "sas_format": null,
          "core": "Exp",
          "origin": "CRF",
          "role": "Result Qualifier",
          "codelist": null,
          "comment": null,
          "derivation_method": null
        },
        {
          "name": "VSSTRESU",
          "label": "Standard Units",
          "data_type": "text",
          "length": null,
          "significant_digits": null,
          "sas_format": null,
          "core": "Exp",
          "origin": "CRF",
          "role": "Variable Qualifier",
          "codelist": "VSRESU",
          "comment": null,
          "derivation_method": null
        },
        {
          "name": "VSSTAT",
          "label": "Completion Status",
          "data_type": "text",
          "length": null,
          "significant_digits": null,
          "sas_format": null,
          "core": "Perm",
          "origin": "CRF",
          "role": "Record Qualifier",
          "codelist": "STAT",
          "comment": null,
          "derivation_method": null
        },
        {
          "name": "VISITNUM",
          "label": "Visit Number",
          "data_type": "float",
          "length": null,
          "significant_digits": null,
          "sas_format": null,
          "core": "Exp",
          "origin": "CRF",
          "role": "Timing",
          "codelist": null,
          "comment": null,
          "derivation_method": null
        },
        {
          "name": "VISIT",
          "label": "Visit Name",
          "data_type": "text",
          "length": null,
          "significant_digits": null,
          "sas_format": null,
          "core": "Exp",
          "origin": "CRF",
          "role": "Timing",
          "codelist": null,
          "comment": null,
          "derivation_method": null
        },
        {
          "name": "VSDTC",
          "label": "Date/Time of Measurements",
          "data_type": "datetime",
          "length": null,
          "significant_digits": null,
          "sas_format": null,
          "core": "Exp",
          "origin": "CRF",
          "role": "Timing",
          "codelist": null,
          "comment": null,
          "derivation_method": null
        }
      ]
    },
    {
      "name": "EX",
      "label": "Exposure",
      "domain": "EX",
      "class_name": "Interventions",
      "structure": "One record per protocol-specified study treatment per subject",
      "purpose": "Tabulation",
      "keys": [
        "STUDYID",
        "USUBJID",
        "EXSEQ"
      ],
      "repeating": true,
      "is_reference": false,
      "variables": [
        {
          "name": "STUDYID",
          "label": "Study Identifier",
          "data_type": "text",
          "length": null,
          "significant_digits": null,
          "sas_format": null,
          "core": "Req",
          "origin": "CRF",
          "role": "Identifier",
          "codelist": null,
          "comment": null,
          "derivation_method": null
        },
        {
          "name": "DOMAIN",
          "label": "Domain Abbreviation",
          "data_type": "text",
          "length": null,
          "significant_digits": null,
          "sas_format": null,
          "core": "Req",
          "origin": "CRF",
          "role": "Identifier",
          "codelist": null,
          "comment": null,
          "derivation_method": null
        },
        {
          "name": "USUBJID",
          "label": "Unique Subject Identifier",
          "data_type": "text",
          "length": null,
          "significant_digits": null,
          "sas_format": null,
          "core": "Req",
          "origin": "CRF",
          "role": "Identifier",
          "codelist": null,
          "comment": null,
          "derivation_method": null
        },
        {
          "name": "EXSEQ",
          "label": "Sequence Number",
          "data_type": "integer",
          "length": null,
          "significant_digits": null,
          "sas_format": null,
          "core": "Req",
          "origin": "CRF",
          "role": "Identifier",
          "codelist": null,
          "comment": null,
          "derivation_method": null
        },
        {
          "name": "EXTRT",
          "label": "Name of Treatment",
          "data_type": "text",
          "length": null,
          "significant_digits": null,
          "sas_format": null,
          "core": "Req",
          "origin": "CRF",
          "role": "Topic",
          "codelist": null,
          "comment": null,
          "derivation_method": null
        },
        {
          "name": "EXDOSE",
          "label": "Dose",
          "data_type": "float",
          "length": null,
          "significant_digits": null,
          "sas_format": null,
          "core": "Exp",
          "origin": "CRF",
          "role": "Record Qualifier",
          "codelist": null,
          "comment": null,
          "derivation_method": null
        },
        {
          "name": "EXDOSU",
          "label": "Dose Units",
          "data_type": "text",
          "length": null,
          "significant_digits": null,
          "sas_format": null,
          "core": "Exp",
          "origin": "CRF",
          "role": "Variable Qualifier",
          "codelist": "UNIT",
          "comment": null,
          "derivation_method": null
        },
        {
          "name": "EXDOSFRM",
          "label": "Dose Form",
          "data_type": "text",
          "length": null,
          "significant_digits": null,
          "sas_format": null,
          "core": "Exp",
          "origin": "CRF",
          "role": "Variable Qualifier",
          "codelist": "FRM",
          "comment": null,
          "derivation_method": null
        },
        {
          "name": "EXROUTE",
          "label": "Route of Administration",
          "data_type": "text",
          "length": null,
          "significant_digits": null,
          "sas_format": null,
          "core": "Exp",
          "origin": "CRF",
          "role": "Record Qualifier",
          "codelist": "ROUTE",
          "comment": null,
          "derivation_method": null
        },
        {
          "name": "EXSTDTC",
          "label": "Start Date/Time of Treatment",
          "data_type": "datetime",
          "length": null,
          "significant_digits": null,
          "sas_format": null,
          "core": "Exp",
          "origin": "CRF",
          "role": "Timing",
          "codelist": null,
          "comment": null,
          "derivation_method": null
        },
        {
          "name": "EXENDTC",
          "label": "End Date/Time of Treatment",
          "data_type": "datetime",
          "length": null,
          "significant_digits": null,
          "sas_format": null,
          "core": "Exp",
          "origin": "CRF",
          "role": "Timing",
          "codelist": null,
          "comment": null,
          "derivation_method": null
        },
        {
          "name": "VISITNUM",
          "label": "Visit Number",
          "data_type": "float",
          "length": null,
          "significant_digits": null,
          "sas_format": null,
          "core": "Exp",
          "origin": "CRF",
          "role": "Timing",
          "codelist": null,
          "comment": null,
          "derivation_method": null
        },
        {
          "name": "VISIT",
          "label": "Visit Name",
          "data_type": "text",
          "length": null,
          "significant_digits": null,
          "sas_format": null,
          "core": "Exp",
          "origin": "CRF",
          "role": "Timing",
          "codelist": null,
          "comment": null,
          "derivation_method": null
        }
      ]
    },
    {
      "name": "MH",
      "label": "Medical History",
      "domain": "MH",
      "class_name": "Events",
      "structure": "One record per medical history event per subject",
      "purpose": "Tabulation",
      "keys": [
        "STUDYID",
        "USUBJID",
        "MHSEQ"
      ],
      "repeating": true,
      "is_reference": false,
      "variables": [
        {
          "name": "STUDYID",
          "label": "Study Identifier",
          "data_type": "text",
          "length": null,
          "significant_digits": null,
          "sas_format": null,
          "core": "Req",
          "origin": "CRF",
          "role": "Identifier",
          "codelist": null,
          "comment": null,
          "derivation_method": null
        },
        {
          "name": "DOMAIN",
          "label": "Domain Abbreviation",
          "data_type": "text",
          "length": null,
          "significant_digits": null,
          "sas_format": null,
          "core": "Req",
          "origin": "CRF",
          "role": "Identifier",
          "codelist": null,
          "comment": null,
          "derivation_method": null
        },
        {
          "name": "USUBJID",
          "label": "Unique Subject Identifier",
          "data_type": "text",
          "length": null,
          "significant_digits": null,
          "sas_format": null,
          "core": "Req",
          "origin": "CRF",
          "role": "Identifier",
          "codelist": null,
          "comment": null,
          "derivation_method": null
        },
        {
          "name": "MHSEQ",
          "label": "Sequence Number",
          "data_type": "integer",
          "length": null,
          "significant_digits": null,
          "sas_format": null,
          "core": "Req",
          "origin": "CRF",
          "role": "Identifier",
          "codelist": null,
          "comment": null,
          "derivation_method": null
        },
        {
          "name": "MHTERM",
          "label": "Reported Term for the Medical History",
          "data_type": "text",
          "length": null,
          "significant_digits": null,
          "sas_format": null,
          "core": "Req",
          "origin": "CRF",
          "role": "Topic",
          "codelist": null,
          "comment": null,
          "derivation_method": null
        },
        {
          "name": "MHDECOD",
          "label": "Dictionary-Derived Term",
          "data_type": "text",
          "length": null,
          "significant_digits": null,
          "sas_format": null,
          "core": "Exp",
          "origin": "CRF",
          "role": "Synonym Qualifier",
          "codelist": null,
          "comment": null,
          "derivation_method": null
        },
        {
          "name": "MHCAT",
          "label": "Category for Medical History",
          "data_type": "text",
          "length": null,
          "significant_digits": null,
          "sas_format": null,
          "core": "Perm",
          "origin": "CRF",
          "role": "Grouping Qualifier",
          "codelist": null,
          "comment": null,
          "derivation_method": null
        },
        {
          "name": "MHBODSYS",
          "label": "Body System or Organ Class",
          "data_type": "text",
          "length": null,
          "significant_digits": null,
          "sas_format": null,
          "core": "Exp",
          "origin": "CRF",
          "role": "Record Qualifier",
          "codelist": null,
          "comment": null,
          "derivation_method": null
        },
        {
          "name": "MHSTDTC",
          "label": "Start Date/Time of Medical History Event",
          "data_type": "datetime",
          "length": null,
          "significant_digits": null,
          "sas_format": null,
          "core": "Exp",
          "origin": "CRF",
          "role": "Timing",
          "codelist": null,
          "comment": null,
          "derivation_method": null
        },
        {
          "name": "MHENDTC",
          "label": "End Date/Time of Medical History Event",
          "data_type": "datetime",
          "length": null,
          "significant_digits": null,
          "sas_format": null,
          "core": "Perm",
          "origin": "CRF",
          "role": "Timing",
          "codelist": null,
          "comment": null,
          "derivation_method": null
        }
      ]
    },
    {
      "name": "DM",
      "label": "Demographics",
      "domain": "DM",
      "class_name": "Special Purpose",
      "structure": "One record per subject",
      "purpose": "Tabulation",
      "keys": [
        "STUDYID",
        "USUBJID"
      ],
      "repeating": false,
      "is_reference": false,
      "variables": [
        {
          "name": "STUDYID",
          "label": "Study Identifier",
          "data_type": "text",
          "length": null,
          "significant_digits": null,
          "sas_format": null,
          "core": "Req",
          "origin": "CRF",
          "role": "Identifier",
          "codelist": null,
          "comment": null,
          "derivation_method": null
        },
        {
          "name": "DOMAIN",
          "label": "Domain Abbreviation",
          "data_type": "text",
          "length": null,
          "significant_digits": null,
          "sas_format": null,
          "core": "Req",
          "origin": "CRF",
          "role": "Identifier",
          "codelist": null,
          "comment": null,
          "derivation_method": null
        },
        {
          "name": "USUBJID",
          "label": "Unique Subject Identifier",
          "data_type": "text",
          "length": null,
          "significant_digits": null,
          "sas_format": null,
          "core": "Req",
          "origin": "CRF",
          "role": "Identifier",
          "codelist": null,
          "comment": null,
          "derivation_method": null
        },
        {
          "name": "SUBJID",
          "label": "Subject Identifier for the Study",
          "data_type": "text",
          "length": null,
          "significant_digits": null,
          "sas_format": null,
          "core": "Req",
          "origin": "CRF",
          "role": "Topic",
          "codelist": null,
          "comment": null,
          "derivation_method": null
        },
        {
          "name": "RFSTDTC",
          "label": "Subject Reference Start Date/Time",
          "data_type": "datetime",
          "length": null,
          "significant_digits": null,
          "sas_format": null,
          "core": "Exp",
          "origin": "CRF",
          "role": "Timing",
          "codelist": null,
          "comment": null,
          "derivation_method": null
        },
        {
          "name": "RFENDTC",
          "label": "Subject Reference End Date/Time",
          "data_type": "datetime",
          "length": null,
          "significant_digits": null,
          "sas_format": null,
          "core": "Exp",
          "origin": "CRF",
          "role": "Timing",
          "codelist": null,
          "comment": null,
          "derivation_method": null
        },
        {
          "name": "SITEID",
          "label": "Study Site Identifier",
          "data_type": "text",
          "length": null,
          "significant_digits": null,
          "sas_format": null,
          "core": "Req",
          "origin": "CRF",
          "role": "Record Qualifier",
          "codelist": null,
          "comment": null,
          "derivation_method": null
        },
        {
          "name": "BRTHDTC",
          "label": "Date/Time of Birth",
          "data_type": "datetime",
          "length": null,
          "significant_digits": null,
          "sas_format": null,
          "core": "Perm",
          "origin": "CRF",
          "role": "Record Qualifier",
          "codelist": null,
          "comment": null,
          "derivation_method": null
        },
        {
          "name": "AGE",
          "label": "Age",
          "data_type": "integer",
          "length": null,
          "significant_digits": null,
          "sas_format": null,
          "core": "Exp",
          "origin": "CRF",
          "role": "Record Qualifier",
          "codelist": null,
          "comment": null,
          "derivation_method": null
        },
        {
          "name": "AGEU",
          "label": "Age Units",
          "data_type": "text",
          "length": null,
          "significant_digits": null,
          "sas_format": null,
          "core": "Exp",
          "origin": "CRF",
          "role": "Variable Qualifier",
          "codelist": "AGEU",
          "comment": null,
          "derivation_method": null
        },
        {
          "name": "SEX",
          "label": "Sex",
          "data_type": "text",
          "length": null,
          "significant_digits": null,
          "sas_format": null,
          "core": "Req",
          "origin": "CRF",
          "role": "Record Qualifier",
          "codelist": "SEX",
          "comment": null,
          "derivation_method": null
        },
        {
          "name": "RACE",
          "label": "Race",
          "data_type": "text",
          "length": null,
          "significant_digits": null,
          "sas_format": null,
          "core": "Exp",
          "origin": "CRF",
          "role": "Record Qualifier",
          "codelist": "RACE",
          "comment": null,
          "derivation_method": null
        },
        {
          "name": "ETHNIC",
          "label": "Ethnicity",
          "data_type": "text",
          "length": null,
          "significant_digits": null,
          "sas_format": null,
          "core": "Perm",
          "origin": "CRF",
          "role": "Record Qualifier",
          "codelist": "ETHNIC",
          "comment": null,
          "derivation_method": null
        },
        {
          "name": "ARMCD",
          "label": "Planned Arm Code",
          "data_type": "text",
          "length": null,
          "significant_digits": null,
          "sas_format": null,
          "core": "Req",
          "origin": "CRF",
          "role": "Record Qualifier",
          "codelist": null,
          "comment": null,
          "derivation_method": null
        },
        {
          "name": "ARM",
          "label": "Description of Planned Arm",
          "data_type": "text",
          "length": null,
          "significant_digits": null,
          "sas_format": null,
          "core": "Req",
          "origin": "CRF",
          "role": "Synonym Qualifier",
          "codelist": null,
          "comment": null,
          "derivation_method": null
        },
        {
          "name": "COUNTRY",
          "label": "Country",
          "data_type": "text",
          "length": null,
          "significant_digits": null,
          "sas_format": null,
          "core": "Req",
          "origin": "CRF",
          "role": "Record Qualifier",
          "codelist": "COUNTRY",
          "comment": null,
          "derivation_method": null
        }
      ]
    },
    {
      "name": "DS",
      "label": "Disposition",
      "domain": "DS",
      "class_name": "Events",
      "structure": "One record per disposition status per subject",
      "purpose": "Tabulation",
      "keys": [
        "STUDYID",
        "USUBJID",
        "DSSEQ"
      ],
      "repeating": true,
      "is_reference": false,
      "variables": [
        {
          "name": "STUDYID",
          "label": "Study Identifier",
          "data_type": "text",
          "length": null,
          "significant_digits": null,
          "sas_format": null,
          "core": "Req",
          "origin": "CRF",
          "role": "Identifier",
          "codelist": null,
          "comment": null,
          "derivation_method": null
        },
        {
          "name": "DOMAIN",
          "label": "Domain Abbreviation",
          "data_type": "text",
          "length": null,
          "significant_digits": null,
          "sas_format": null,
          "core": "Req",
          "origin": "CRF",
          "role": "Identifier",
          "codelist": null,
          "comment": null,
          "derivation_method": null
        },
        {
          "name": "USUBJID",
          "label": "Unique Subject Identifier",
          "data_type": "text",
          "length": null,
          "significant_digits": null,
          "sas_format": null,
          "core": "Req",
          "origin": "CRF",
          "role": "Identifier",
          "codelist": null,
          "comment": null,
          "derivation_method": null
        },
        {
          "name": "DSSEQ",
          "label": "Sequence Number",
          "data_type": "integer",
          "length": null,
          "significant_digits": null,
          "sas_format": null,
          "core": "Req",
          "origin": "CRF",
          "role": "Identifier",
          "codelist": null,
          "comment": null,
          "derivation_method": null
        },
        {
          "name": "DSTERM",
          "label": "Reported Term for the Disposition Event",
          "data_type": "text",
          "length": null,
          "significant_digits": null,
          "sas_format": null,
          "core": "Req",
          "origin": "CRF",
          "role": "Topic",
          "codelist": null,
          "comment": null,
          "derivation_method": null
        },
        {
          "name": "DSDECOD",
          "label": "Standardized Disposition Term",
          "data_type": "text",
          "length": null,
          "significant_digits": null,
          "sas_format": null,
          "core": "Req",
          "origin": "CRF",
          "role": "Synonym Qualifier",
          "codelist": "NCOMPLT",
          "comment": null,
          "derivation_method": null
        },
        {
          "name": "DSCAT",
          "label": "Category for Disposition Event",
          "data_type": "text",
          "length": null,
          "significant_digits": null,
          "sas_format": null,
          "core": "Exp",
          "origin": "CRF",
          "role": "Grouping Qualifier",
          "codelist": null,
          "comment": null,
          "derivation_method": null
        },
        {
          "name": "DSSTDTC",
          "label": "Start Date/Time of Disposition Event",
          "data_type": "datetime",
          "length": null,
          "significant_digits": null,
          "sas_format": null,
          "core": "Exp",
          "origin": "CRF",
          "role": "Timing",
          "codelist": null,
          "comment": null,
          "derivation_method": null
        }
      ]
    }
  ],
  "codelists": {
    "CL.SEX": {
      "oid": "CL.SEX",
      "name": "Sex",
      "data_type": "text",
      "items": [
        {
          "coded_value": "M",
          "decode": "Male",
          "rank": null
        },
        {
          "coded_value": "F",
          "decode": "Female",
          "rank": null
        },
        {
          "coded_value": "U",
          "decode": "Unknown",
          "rank": null
        }
      ],
      "is_extensible": false,
      "source": "CDISC"
    },
    "CL.RACE": {
      "oid": "CL.RACE",
      "name": "Race",
      "data_type": "text",
      "items": [
        {
          "coded_value": "WHITE",
          "decode": "White",
          "rank": null
        },
        {
          "coded_value": "BLACK OR AFRICAN AMERICAN",
          "decode": "Black or African American",
          "rank": null
        },
        {
          "coded_value": "ASIAN",
          "decode": "Asian",
          "rank": null
        },
        {
          "coded_value": "AMERICAN INDIAN OR ALASKA NATIVE",
          "decode": "American Indian or Alaska Native",
          "rank": null
        },
        {
          "coded_value": "NATIVE HAWAIIAN OR OTHER PACIFIC ISLANDER",
          "decode": "Native Hawaiian or Other Pacific Islander",
          "rank": null
        },
        {
          "coded_value": "OTHER",
          "decode": "Other",
          "rank": null
        },
        {
          "coded_value": "MULTIPLE",
          "decode": "Multiple",
          "rank": null
        }
      ],
      "is_extensible": false,
      "source": "CDISC"
    },
    "CL.ETHNIC": {
      "oid": "CL.ETHNIC",
      "name": "Ethnicity",
      "data_type": "text",
      "items": [
        {
          "coded_value": "HISPANIC OR LATINO",
          "decode": "Hispanic or Latino",
          "rank": null
        },
        {
          "coded_value": "NOT HISPANIC OR LATINO",
          "decode": "Not Hispanic or Latino",
          "rank": null
        },
        {
          "coded_value": "NOT REPORTED",
          "decode": "Not Reported",
          "rank": null
        },
        {
          "coded_value": "UNKNOWN",
          "decode": "Unknown",
          "rank": null
        }
      ],
      "is_extensible": false,
      "source": "CDISC"
    },
    "CL.NY": {
      "oid": "CL.NY",
      "name": "No Yes Response",
      "data_type": "text",
      "items": [
        {
          "coded_value": "N",
          "decode": "No",
          "rank": null
        },
        {
          "coded_value": "Y",
          "decode": "Yes",
          "rank": null
        }
      ],
      "is_extensible": false,
      "source": "CDISC"
    },
    "CL.AGEU": {
      "oid": "CL.AGEU",
      "name": "Age Unit",
      "data_type": "text",
      "items": [
        {
          "coded_value": "YEARS",
          "decode": "Years",
          "rank": null
        },
        {
          "coded_value": "MONTHS",
          "decode": "Months",
          "rank": null
        },
        {
          "coded_value": "WEEKS",
          "decode": "Weeks",
          "rank": null
        },
        {
          "coded_value": "DAYS",
          "decode": "Days",
          "rank": null
        },
        {
          "coded_value": "HOURS",
          "decode": "Hours",
          "rank": null
        }
      ],
      "is_extensible": false,
      "source": "CDISC"
    }
  },
  "methods": {}
}