<?xml version="1.0" ?>
<ODM xmlns="http://www.cdisc.org/ns/odm/v1.3" xmlns:def="http://www.cdisc.org/ns/def/v2.1" xmlns:xsi="http://www.w3.org/2001/XMLSchema-instance" xmlns:xlink="http://www.w3.org/1999/xlink" ODMVersion="1.3.2" FileOID="DEF.SDTM" FileType="Snapshot" CreationDateTime="2026-01-22T17:25:01.675840" Originator="Sponsor">
  <Study OID="STUDY.MAXIS-08">
    <GlobalVariables>
      <StudyName>Study MAXIS-08</StudyName>
      <StudyDescription>Study MAXIS-08</StudyDescription>
      <ProtocolName>MAXIS-08</ProtocolName>
    </GlobalVariables>
    <MetaDataVersion OID="MDV.SDTM.1" Name="SDTM metadata for Study MAXIS-08" def:DefineVersion="2.1.0" def:StandardName="CDISC-SDTM" def:StandardVersion="3.4">
      <CodeList OID="CL.SEX" Name="Sex" DataType="text">
        <CodeListItem CodedValue="M">
          <Decode>
            <TranslatedText xml:lang="en">Male</TranslatedText>
          </Decode>
        </CodeListItem>
        <CodeListItem CodedValue="F">
          <Decode>
            <TranslatedText xml:lang="en">Female</TranslatedText>
          </Decode>
        </CodeListItem>
        <CodeListItem CodedValue="U">
          <Decode>
            <TranslatedText xml:lang="en">Unknown</TranslatedText>
          </Decode>
        </CodeListItem>
      </CodeList>
      <CodeList OID="CL.RACE" Name="Race" DataType="text">
        <CodeListItem CodedValue="WHITE">
          <Decode>
            <TranslatedText xml:lang="en">White</TranslatedText>
          </Decode>
        </CodeListItem>
        <CodeListItem CodedValue="BLACK OR AFRICAN AMERICAN">
          <Decode>
            <TranslatedText xml:lang="en">Black or African American</TranslatedText>
          </Decode>
        </CodeListItem>
        <CodeListItem CodedValue="ASIAN">
          <Decode>
            <TranslatedText xml:lang="en">Asian</TranslatedText>
          </Decode>
        </CodeListItem>
        <CodeListItem CodedValue="AMERICAN INDIAN OR ALASKA NATIVE">
          <Decode>
            <TranslatedText xml:lang="en">American Indian or Alaska Native</TranslatedText>
          </Decode>
        </CodeListItem>
        <CodeListItem CodedValue="NATIVE HAWAIIAN OR OTHER PACIFIC ISLANDER">
          <Decode>
            <TranslatedText xml:lang="en">Native Hawaiian or Other Pacific Islander</TranslatedText>
          </Decode>
        </CodeListItem>
        <CodeListItem CodedValue="OTHER">
          <Decode>
            <TranslatedText xml:lang="en">Other</TranslatedText>
          </Decode>
        </CodeListItem>
        <CodeListItem CodedValue="MULTIPLE">
          <Decode>
            <TranslatedText xml:lang="en">Multiple</TranslatedText>
          </Decode>
        </CodeListItem>
      </CodeList>
      <CodeList OID="CL.ETHNIC" Name="Ethnicity" DataType="text">
        <CodeListItem CodedValue="HISPANIC OR LATINO">
          <Decode>
            <TranslatedText xml:lang="en">Hispanic or Latino</TranslatedText>
          </Decode>
        </CodeListItem>
        <CodeListItem CodedValue="NOT HISPANIC OR LATINO">
          <Decode>
            <TranslatedText xml:lang="en">Not Hispanic or Latino</TranslatedText>
          </Decode>
        </CodeListItem>
        <CodeListItem CodedValue="NOT REPORTED">
          <Decode>
            <TranslatedText xml:lang="en">Not Reported</TranslatedText>
          </Decode>
        </CodeListItem>
        <CodeListItem CodedValue="UNKNOWN">
          <Decode>
            <TranslatedText xml:lang="en">Unknown</TranslatedText>
          </Decode>
        </CodeListItem>
      </CodeList>
      <CodeList OID="CL.NY" Name="No Yes Response" DataType="text">
        <CodeListItem CodedValue="N">
          <Decode>
            <TranslatedText xml:lang="en">No</TranslatedText>
          </Decode>
        </CodeListItem>
        <CodeListItem CodedValue="Y">
          <Decode>
            <TranslatedText xml:lang="en">Yes</TranslatedText>
          </Decode>
        </CodeListItem>
      </CodeList>
      <CodeList OID="CL.AGEU" Name="Age Unit" DataType="text">
        <CodeListItem CodedValue="YEARS">
          <Decode>
            <TranslatedText xml:lang="en">Years</TranslatedText>
          </Decode>
        </CodeListItem>
        <CodeListItem CodedValue="MONTHS">
          <Decode>
            <TranslatedText xml:lang="en">Months</TranslatedText>
          </Decode>
        </CodeListItem>
        <CodeListItem CodedValue="WEEKS">
          <Decode>
            <TranslatedText xml:lang="en">Weeks</TranslatedText>
          </Decode>
        </CodeListItem>
        <CodeListItem CodedValue="DAYS">
          <Decode>
            <TranslatedText xml:lang="en">Days</TranslatedText>
          </Decode>
        </CodeListItem>
        <CodeListItem CodedValue="HOURS">
          <Decode>
            <TranslatedText xml:lang="en">Hours</TranslatedText>
          </Decode>
        </CodeListItem>
      </CodeList>
      <ItemGroupDef OID="IG.LB" Name="LB" Repeating="Yes" IsReferenceData="No" Purpose="Tabulation" def:Structure="One record per lab test per time point per subject" def:Class="Findings">
        <Description>
          <TranslatedText xml:lang="en">Laboratory Test Results</TranslatedText>
        </Description>
        <ItemRef ItemOID="IT.LB.STUDYID" OrderNumber="1" Mandatory="Yes" KeySequence="1" Role="Identifier"/>
        <ItemRef ItemOID="IT.LB.DOMAIN" OrderNumber="2" Mandatory="Yes" Role="Identifier"/>
        <ItemRef ItemOID="IT.LB.USUBJID" OrderNumber="3" Mandatory="Yes" KeySequence="2" Role="Identifier"/>
        <ItemRef ItemOID="IT.LB.LBSEQ" OrderNumber="4" Mandatory="Yes" Role="Identifier"/>
        <ItemRef ItemOID="IT.LB.LBTESTCD" OrderNumber="5" Mandatory="Yes" KeySequence="3" Role="Topic"/>
        <ItemRef ItemOID="IT.LB.LBTEST" OrderNumber="6" Mandatory="Yes" Role="Synonym Qualifier"/>
        <ItemRef ItemOID="IT.LB.LBCAT" OrderNumber="7" Mandatory="No" Role="Grouping Qualifier"/>
        <ItemRef ItemOID="IT.LB.LBORRES" OrderNumber="8" Mandatory="No" Role="Result Qualifier"/>
        <ItemRef ItemOID="IT.LB.LBORRESU" OrderNumber="9" Mandatory="No" Role="Variable Qualifier"/>
        <ItemRef ItemOID="IT.LB.LBSTRESC" OrderNumber="10" Mandatory="No" Role="Result Qualifier"/>
        <ItemRef ItemOID="IT.LB.LBSTRESN" OrderNumber="11" Mandatory="No" Role="Result Qualifier"/>
        <ItemRef ItemOID="IT.LB.LBSTRESU" OrderNumber="12" Mandatory="No" Role="Variable Qualifier"/>
        <ItemRef ItemOID="IT.LB.LBNRIND" OrderNumber="13" Mandatory="No" Role="Variable Qualifier"/>
        <ItemRef ItemOID="IT.LB.LBSPEC" OrderNumber="14" Mandatory="No" KeySequence="5" Role="Record Qualifier"/>
        <ItemRef ItemOID="IT.LB.VISITNUM" OrderNumber="15" Mandatory="No" KeySequence="4" Role="Timing"/>
        <ItemRef ItemOID="IT.LB.VISIT" OrderNumber="16" Mandatory="No" Role="Timing"/>
        <ItemRef ItemOID="IT.LB.LBDTC" OrderNumber="17" Mandatory="No" Role="Timing"/>
      </ItemGroupDef>
      <ItemGroupDef OID="IG.AE" Name="AE" Repeating="Yes" IsReferenceData="No" Purpose="Tabulation" def:Structure="One record per adverse event per subject" def:Class="Events">
        <Description>
          <TranslatedText xml:lang="en">Adverse Events</TranslatedText>
        </Description>
        <ItemRef ItemOID="IT.AE.STUDYID" OrderNumber="1" Mandatory="Yes" KeySequence="1" Role="Identifier"/>
        <ItemRef ItemOID="IT.AE.DOMAIN" OrderNumber="2" Mandatory="Yes" Role="Identifier"/>
        <ItemRef ItemOID="IT.AE.USUBJID" OrderNumber="3" Mandatory="Yes" KeySequence="2" Role="Identifier"/>
        <ItemRef ItemOID="IT.AE.AESEQ" OrderNumber="4" Mandatory="Yes" KeySequence="3" Role="Identifier"/>
        <ItemRef ItemOID="IT.AE.AETERM" OrderNumber="5" Mandatory="Yes" Role="Topic"/>
        <ItemRef ItemOID="IT.AE.AEDECOD" OrderNumber="6" Mandatory="Yes" Role="Synonym Qualifier"/>
        <ItemRef ItemOID="IT.AE.AEBODSYS" OrderNumber="7" Mandatory="No" Role="Record Qualifier"/>
        <ItemRef ItemOID="IT.AE.AESEV" OrderNumber="8" Mandatory="No" Role="Record Qualifier"/>
        <ItemRef ItemOID="IT.AE.AESER" OrderNumber="9" Mandatory="No" Role="Record Qualifier"/>
        <ItemRef ItemOID="IT.AE.AEREL" OrderNumber="10" Mandatory="No" Role="Record Qualifier"/>
        <ItemRef ItemOID="IT.AE.AEACN" OrderNumber="11" Mandatory="No" Role="Record Qualifier"/>
        <ItemRef ItemOID="IT.AE.AEOUT" OrderNumber="12" Mandatory="No" Role="Record Qualifier"/>
        <ItemRef ItemOID="IT.AE.AESTDTC" OrderNumber="13" Mandatory="No" Role="Timing"/>
        <ItemRef ItemOID="IT.AE.AEENDTC" OrderNumber="14" Mandatory="No" Role="Timing"/>
      </ItemGroupDef>
      <ItemGroupDef OID="IG.CM" Name="CM" Repeating="Yes" IsReferenceData="No" Purpose="Tabulation" def:Structure="One record per recorded medication occurrence per subject" def:Class="Interventions">
        <Description>
          <TranslatedText xml:lang="en">Concomitant Medications</TranslatedText>
        </Description>
        <ItemRef ItemOID="IT.CM.STUDYID" OrderNumber="1" Mandatory="Yes" KeySequence="1" Role="Identifier"/>
        <ItemRef ItemOID="IT.CM.DOMAIN" OrderNumber="2" Mandatory="Yes" Role="Identifier"/>
        <ItemRef ItemOID="IT.CM.USUBJID" OrderNumber="3" Mandatory="Yes" KeySequence="2" Role="Identifier"/>
        <ItemRef ItemOID="IT.CM.CMSEQ" OrderNumber="4" Mandatory="Yes" KeySequence="3" Role="Identifier"/>
        <ItemRef ItemOID="IT.CM.CMTRT" OrderNumber="5" Mandatory="Yes" Role="Topic"/>
        <ItemRef ItemOID="IT.CM.CMDECOD" OrderNumber="6" Mandatory="No" Role="Synonym Qualifier"/>
        <ItemRef ItemOID="IT.CM.CMCAT" OrderNumber="7" Mandatory="No" Role="Grouping Qualifier"/>
        <ItemRef ItemOID="IT.CM.CMDOSE" OrderNumber="8" Mandatory="No" Role="Record Qualifier"/>
        <ItemRef ItemOID="IT.CM.CMDOSU" OrderNumber="9" Mandatory="No" Role="Variable Qualifier"/>
        <ItemRef ItemOID="IT.CM.CMROUTE" OrderNumber="10" Mandatory="No" Role="Record Qualifier"/>
        <ItemRef ItemOID="IT.CM.CMSTDTC" OrderNumber="11" Mandatory="No" Role="Timing"/>
        <ItemRef ItemOID="IT.CM.CMENDTC" OrderNumber="12" Mandatory="No" Role="Timing"/>
      </ItemGroupDef>
      <ItemGroupDef OID="IG.VS" Name="VS" Repeating="Yes" IsReferenceData="No" Purpose="Tabulation" def:Structure="One record per vital sign measurement per time point per subject" def:Class="Findings">
        <Description>
          <TranslatedText xml:lang="en">Vital Signs</TranslatedText>
        </Description>
        <ItemRef ItemOID="IT.VS.STUDYID" OrderNumber="1" Mandatory="Yes" KeySequence="1" Role="Identifier"/>
        <ItemRef ItemOID="IT.VS.DOMAIN" OrderNumber="2" Mandatory="Yes" Role="Identifier"/>
        <ItemRef ItemOID="IT.VS.USUBJID" OrderNumber="3" Mandatory="Yes" KeySequence="2" Role="Identifier"/>
        <ItemRef ItemOID="IT.VS.VSSEQ" OrderNumber="4" Mandatory="Yes" Role="Identifier"/>
        <ItemRef ItemOID="IT.VS.VSTESTCD" OrderNumber="5" Mandatory="Yes" KeySequence="3" Role="Topic"/>
        <ItemRef ItemOID="IT.VS.VSTEST" OrderNumber="6" Mandatory="Yes" Role="Synonym Qualifier"/>
        <ItemRef ItemOID="IT.VS.VSORRES" OrderNumber="7" Mandatory="No" Role="Result Qualifier"/>
        <ItemRef ItemOID="IT.VS.VSORRESU" OrderNumber="8" Mandatory="No" Role="Variable Qualifier"/>
        <ItemRef ItemOID="IT.VS.VSSTRESC" OrderNumber="9" Mandatory="No" Role="Result Qualifier"/>
        <ItemRef ItemOID="IT.VS.VSSTRESN" OrderNumber="10" Mandatory="No" Role="Result Qualifier"/>
        <ItemRef ItemOID="IT.VS.VSSTRESU" OrderNumber="11" Mandatory="No" Role="Variable Qualifier"/>
        <ItemRef ItemOID="IT.VS.VSSTAT" OrderNumber="12" Mandatory="No" Role="Record Qualifier"/>
        <ItemRef ItemOID="IT.VS.VISITNUM" OrderNumber="13" Mandatory="No" KeySequence="4" Role="Timing"/>
        <ItemRef ItemOID="IT.VS.VISIT" OrderNumber="14" Mandatory="No" Role="Timing"/>
        <ItemRef ItemOID="IT.VS.VSDTC" OrderNumber="15" Mandatory="No" Role="Timing"/>
      </ItemGroupDef>
      <ItemGroupDef OID="IG.EX" Name="EX" Repeating="Yes" IsReferenceData="No" Purpose="Tabulation" def:Structure="One record per protocol-specified study treatment per subject" def:Class="Interventions">
        <Description>
          <TranslatedText xml:lang="en">Exposure</TranslatedText>
        </Description>
        <ItemRef ItemOID="IT.EX.STUDYID" OrderNumber="1" Mandatory="Yes" KeySequence="1" Role="Identifier"/>
        <ItemRef ItemOID="IT.EX.DOMAIN" OrderNumber="2" Mandatory="Yes" Role="Identifier"/>
        <ItemRef ItemOID="IT.EX.USUBJID" OrderNumber="3" Mandatory="Yes" KeySequence="2" Role="Identifier"/>
        <ItemRef ItemOID="IT.EX.EXSEQ" OrderNumber="4" Mandatory="Yes" KeySequence="3" Role="Identifier"/>
        <ItemRef ItemOID="IT.EX.EXTRT" OrderNumber="5" Mandatory="Yes" Role="Topic"/>
        <ItemRef ItemOID="IT.EX.EXDOSE" OrderNumber="6" Mandatory="No" Role="Record Qualifier"/>
        <ItemRef ItemOID="IT.EX.EXDOSU" OrderNumber="7" Mandatory="No" Role="Variable Qualifier"/>
        <ItemRef ItemOID="IT.EX.EXDOSFRM" OrderNumber="8" Mandatory="No" Role="Variable Qualifier"/>
        <ItemRef ItemOID="IT.EX.EXROUTE" OrderNumber="9" Mandatory="No" Role="Record Qualifier"/>
        <ItemRef ItemOID="IT.EX.EXSTDTC" OrderNumber="10" Mandatory="No" Role="Timing"/>
        <ItemRef ItemOID="IT.EX.EXENDTC" OrderNumber="11" Mandatory="No" Role="Timing"/>
        <ItemRef ItemOID="IT.EX.VISITNUM" OrderNumber="12" Mandatory="No" Role="Timing"/>
        <ItemRef ItemOID="IT.EX.VISIT" OrderNumber="13" Mandatory="No" Role="Timing"/>
      </ItemGroupDef>
      <ItemGroupDef OID="IG.MH" Name="MH" Repeating="Yes" IsReferenceData="No" Purpose="Tabulation" def:Structure="One record per medical history event per subject" def:Class="Events">
        <Description>
          <TranslatedText xml:lang="en">Medical History</TranslatedText>
        </Description>
        <ItemRef ItemOID="IT.MH.STUDYID" OrderNumber="1" Mandatory="Yes" KeySequence="1" Role="Identifier"/>
        <ItemRef ItemOID="IT.MH.DOMAIN" OrderNumber="2" Mandatory="Yes" Role="Identifier"/>
        <ItemRef ItemOID="IT.MH.USUBJID" OrderNumber="3" Mandatory="Yes" KeySequence="2" Role="Identifier"/>
        <ItemRef ItemOID="IT.MH.MHSEQ" OrderNumber="4" Mandatory="Yes" KeySequence="3" Role="Identifier"/>
        <ItemRef ItemOID="IT.MH.MHTERM" OrderNumber="5" Mandatory="Yes" Role="Topic"/>
        <ItemRef ItemOID="IT.MH.MHDECOD" OrderNumber="6" Mandatory="No" Role="Synonym Qualifier"/>
        <ItemRef ItemOID="IT.MH.MHCAT" OrderNumber="7" Mandatory="No" Role="Grouping Qualifier"/>
        <ItemRef ItemOID="IT.MH.MHBODSYS" OrderNumber="8" Mandatory="No" Role="Record Qualifier"/>
        <ItemRef ItemOID="IT.MH.MHSTDTC" OrderNumber="9" Mandatory="No" Role="Timing"/>
        <ItemRef ItemOID="IT.MH.MHENDTC" OrderNumber="10" Mandatory="No" Role="Timing"/>
      </ItemGroupDef>
      <ItemGroupDef OID="IG.DM" Name="DM" Repeating="No" IsReferenceData="No" Purpose="Tabulation" def:Structure="One record per subject" def:Class="Special Purpose">
        <Description>
          <TranslatedText xml:lang="en">Demographics</TranslatedText>
        </Description>
        <ItemRef ItemOID="IT.DM.STUDYID" OrderNumber="1" Mandatory="Yes" KeySequence="1" Role="Identifier"/>
        <ItemRef ItemOID="IT.DM.DOMAIN" OrderNumber="2" Mandatory="Yes" Role="Identifier"/>
        <ItemRef ItemOID="IT.DM.USUBJID" OrderNumber="3" Mandatory="Yes" KeySequence="2" Role="Identifier"/>
        <ItemRef ItemOID="IT.DM.SUBJID" OrderNumber="4" Mandatory="Yes" Role="Topic"/>
        <ItemRef ItemOID="IT.DM.RFSTDTC" OrderNumber="5" Mandatory="No" Role="Timing"/>
        <ItemRef ItemOID="IT.DM.RFENDTC" OrderNumber="6" Mandatory="No" Role="Timing"/>
        <ItemRef ItemOID="IT.DM.SITEID" OrderNumber="7" Mandatory="Yes" Role="Record Qualifier"/>
        <ItemRef ItemOID="IT.DM.BRTHDTC" OrderNumber="8" Mandatory="No" Role="Record Qualifier"/>
        <ItemRef ItemOID="IT.DM.AGE" OrderNumber="9" Mandatory="No" Role="Record Qualifier"/>
        <ItemRef ItemOID="IT.DM.AGEU" OrderNumber="10" Mandatory="No" Role="Variable Qualifier"/>
        <ItemRef ItemOID="IT.DM.SEX" OrderNumber="11" Mandatory="Yes" Role="Record Qualifier"/>
        <ItemRef ItemOID="IT.DM.RACE" OrderNumber="12" Mandatory="No" Role="Record Qualifier"/>
        <ItemRef ItemOID="IT.DM.ETHNIC" OrderNumber="13" Mandatory="No" Role="Record Qualifier"/>
        <ItemRef ItemOID="IT.DM.ARMCD" OrderNumber="14" Mandatory="Yes" Role="Record Qualifier"/>
        <ItemRef ItemOID="IT.DM.ARM" OrderNumber="15" Mandatory="Yes" Role="Synonym Qualifier"/>
        <ItemRef ItemOID="IT.DM.COUNTRY" OrderNumber="16" Mandatory="Yes" Role="Record Qualifier"/>
      </ItemGroupDef>
      <ItemGroupDef OID="IG.DS" Name="DS" Repeating="Yes" IsReferenceData="No" Purpose="Tabulation" def:Structure="One record per disposition status per subject" def:Class="Events">
        <Description>
          <TranslatedText xml:lang="en">Disposition</TranslatedText>
        </Description>
        <ItemRef ItemOID="IT.DS.STUDYID" OrderNumber="1" Mandatory="Yes" KeySequence="1" Role="Identifier"/>
        <ItemRef ItemOID="IT.DS.DOMAIN" OrderNumber="2" Mandatory="Yes" Role="Identifier"/>
        <ItemRef ItemOID="IT.DS.USUBJID" OrderNumber="3" Mandatory="Yes" KeySequence="2" Role="Identifier"/>
        <ItemRef ItemOID="IT.DS.DSSEQ" OrderNumber="4" Mandatory="Yes" KeySequence="3" Role="Identifier"/>
        <ItemRef ItemOID="IT.DS.DSTERM" OrderNumber="5" Mandatory="Yes" Role="Topic"/>
        <ItemRef ItemOID="IT.DS.DSDECOD" OrderNumber="6" Mandatory="Yes" Role="Synonym Qualifier"/>
        <ItemRef ItemOID="IT.DS.DSCAT" OrderNumber="7" Mandatory="No" Role="Grouping Qualifier"/>
        <ItemRef ItemOID="IT.DS.DSSTDTC" OrderNumber="8" Mandatory="No" Role="Timing"/>
      </ItemGroupDef>
      <ItemDef OID="IT.LB.STUDYID" Name="STUDYID" DataType="text">
        <Description>
          <TranslatedText xml:lang="en">Study Identifier</TranslatedText>
        </Description>
        <def:Origin Type="CRF"/>
      </ItemDef>
      <ItemDef OID="IT.LB.DOMAIN" Name="DOMAIN" DataType="text">
        <Description>
          <TranslatedText xml:lang="en">Domain Abbreviation</TranslatedText>
        </Description>
        <def:Origin Type="CRF"/>
      </ItemDef>
      <ItemDef OID="IT.LB.USUBJID" Name="USUBJID" DataType="text">
        <Description>
          <TranslatedText xml:lang="en">Unique Subject Identifier</TranslatedText>
        </Description>
        <def:Origin Type="CRF"/>
      </ItemDef>
      <ItemDef OID="IT.LB.LBSEQ" Name="LBSEQ" DataType="integer">
        <Description>
          <TranslatedText xml:lang="en">Sequence Number</TranslatedText>
        </Description>
        <def:Origin Type="CRF"/>
      </ItemDef>
      <ItemDef OID="IT.LB.LBTESTCD" Name="LBTESTCD" DataType="text">
        <Description>
          <TranslatedText xml:lang="en">Lab Test or Examination Short Name</TranslatedText>
        </Description>
        <CodeListRef CodeListOID="CL.LBTESTCD"/>
        <def:Origin Type="CRF"/>
      </ItemDef>
      <ItemDef OID="IT.LB.LBTEST" Name="LBTEST" DataType="text">
        <Description>
          <TranslatedText xml:lang="en">Lab Test or Examination Name</TranslatedText>
        </Description>
        <CodeListRef CodeListOID="CL.LBTEST"/>
        <def:Origin Type="CRF"/>
      </ItemDef>
      <ItemDef OID="IT.LB.LBCAT" Name="LBCAT" DataType="text">
        <Description>
          <TranslatedText xml:lang="en">Category for Lab Test</TranslatedText>
        </Description>
        <def:Origin Type="CRF"/>
      </ItemDef>
      <ItemDef OID="IT.LB.LBORRES" Name="LBORRES" DataType="text">
        <Description>
          <TranslatedText xml:lang="en">Result or Finding in Original Units</TranslatedText>
        </Description>
        <def:Origin Type="CRF"/>
      </ItemDef>
      <ItemDef OID="IT.LB.LBORRESU" Name="LBORRESU" DataType="text">
        <Description>
          <TranslatedText xml:lang="en">Original Units</TranslatedText>
        </Description>
        <CodeListRef CodeListOID="CL.UNIT"/>
        <def:Origin Type="CRF"/>
      </ItemDef>
      <ItemDef OID="IT.LB.LBSTRESC" Name="LBSTRESC" DataType="text">
        <Description>
          <TranslatedText xml:lang="en">Character Result/Finding in Std Format</TranslatedText>
        </Description>
        <def:Origin Type="CRF"/>
      </ItemDef>
      <ItemDef OID="IT.LB.LBSTRESN" Name="LBSTRESN" DataType="float">
        <Description>
          <TranslatedText xml:lang="en">Numeric Result/Finding in Standard Units</TranslatedText>
        </Description>
        <def:Origin Type="CRF"/>
      </ItemDef>
      <ItemDef OID="IT.LB.LBSTRESU" Name="LBSTRESU" DataType="text">
        <Description>
          <TranslatedText xml:lang="en">Standard Units</TranslatedText>
        </Description>
        <CodeListRef CodeListOID="CL.UNIT"/>
        <def:Origin Type="CRF"/>
      </ItemDef>
      <ItemDef OID="IT.LB.LBNRIND" Name="LBNRIND" DataType="text">
        <Description>
          <TranslatedText xml:lang="en">Reference Range Indicator</TranslatedText>
        </Description>
        <CodeListRef CodeListOID="CL.NRIND"/>
        <def:Origin Type="CRF"/>
      </ItemDef>
      <ItemDef OID="IT.LB.LBSPEC" Name="LBSPEC" DataType="text">
        <Description>
          <TranslatedText xml:lang="en">Specimen Type</TranslatedText>
        </Description>
        <CodeListRef CodeListOID="CL.SPEC"/>
        <def:Origin Type="CRF"/>
      </ItemDef>
      <ItemDef OID="IT.LB.VISITNUM" Name="VISITNUM" DataType="float">
        <Description>
          <TranslatedText xml:lang="en">Visit Number</TranslatedText>
        </Description>
        <def:Origin Type="CRF"/>
      </ItemDef>
      <ItemDef OID="IT.LB.VISIT" Name="VISIT" DataType="text">
        <Description>
          <TranslatedText xml:lang="en">Visit Name</TranslatedText>
        </Description>
        <def:Origin Type="CRF"/>
      </ItemDef>
      <ItemDef OID="IT.LB.LBDTC" Name="LBDTC" DataType="datetime">
        <Description>
          <TranslatedText xml:lang="en">Date/Time of Specimen Collection</TranslatedText>
        </Description>
        <def:Origin Type="CRF"/>
      </ItemDef>
      <ItemDef OID="IT.AE.STUDYID" Name="STUDYID" DataType="text">
        <Description>
          <TranslatedText xml:lang="en">Study Identifier</TranslatedText>
        </Description>
        <def:Origin Type="CRF"/>
      </ItemDef>
      <ItemDef OID="IT.AE.DOMAIN" Name="DOMAIN" DataType="text">
        <Description>
          <TranslatedText xml:lang="en">Domain Abbreviation</TranslatedText>
        </Description>
        <def:Origin Type="CRF"/>
      </ItemDef>
      <ItemDef OID="IT.AE.USUBJID" Name="USUBJID" DataType="text">
        <Description>
          <TranslatedText xml:lang="en">Unique Subject Identifier</TranslatedText>
        </Description>
        <def:Origin Type="CRF"/>
      </ItemDef>
      <ItemDef OID="IT.AE.AESEQ" Name="AESEQ" DataType="integer">
        <Description>
          <TranslatedText xml:lang="en">Sequence Number</TranslatedText>
        </Description>
        <def:Origin Type="CRF"/>
      </ItemDef>
      <ItemDef OID="IT.AE.AETERM" Name="AETERM" DataType="text">
        <Description>
          <TranslatedText xml:lang="en">Reported Term for the Adverse Event</TranslatedText>
        </Description>
        <def:Origin Type="CRF"/>
      </ItemDef>
      <ItemDef OID="IT.AE.AEDECOD" Name="AEDECOD" DataType="text">
        <Description>
          <TranslatedText xml:lang="en">Dictionary-Derived Term</TranslatedText>
        </Description>
        <def:Origin Type="CRF"/>
      </ItemDef>
      <ItemDef OID="IT.AE.AEBODSYS" Name="AEBODSYS" DataType="text">
        <Description>
          <TranslatedText xml:lang="en">Body System or Organ Class</TranslatedText>
        </Description>
        <def:Origin Type="CRF"/>
      </ItemDef>
      <ItemDef OID="IT.AE.AESEV" Name="AESEV" DataType="text">
        <Description>
          <TranslatedText xml:lang="en">Severity/Intensity</TranslatedText>
        </Description>
        <CodeListRef CodeListOID="CL.AESEV"/>
        <def:Origin Type="CRF"/>
      </ItemDef>
      <ItemDef OID="IT.AE.AESER" Name="AESER" DataType="text">
        <Description>
          <TranslatedText xml:lang="en">Serious Event</TranslatedText>
        </Description>
        <CodeListRef CodeListOID="CL.NY"/>
        <def:Origin Type="CRF"/>
      </ItemDef>
      <ItemDef OID="IT.AE.AEREL" Name="AEREL" DataType="text">
        <Description>
          <TranslatedText xml:lang="en">Causality</TranslatedText>
        </Description>
        <def:Origin Type="CRF"/>
      </ItemDef>
      <ItemDef OID="IT.AE.AEACN" Name="AEACN" DataType="text">
        <Description>
          <TranslatedText xml:lang="en">Action Taken with Study Treatment</TranslatedText>
        </Description>
        <CodeListRef CodeListOID="CL.ACN"/>
        <def:Origin Type="CRF"/>
      </ItemDef>
      <ItemDef OID="IT.AE.AEOUT" Name="AEOUT" DataType="text">
        <Description>
          <TranslatedText xml:lang="en">Outcome of Adverse Event</TranslatedText>
        </Description>
        <CodeListRef CodeListOID="CL.OUT"/>
        <def:Origin Type="CRF"/>
      </ItemDef>
      <ItemDef OID="IT.AE.AESTDTC" Name="AESTDTC" DataType="datetime">
        <Description>
          <TranslatedText xml:lang="en">Start Date/Time of Adverse Event</TranslatedText>
        </Description>
        <def:Origin Type="CRF"/>
      </ItemDef>
      <ItemDef OID="IT.AE.AEENDTC" Name="AEENDTC" DataType="datetime">
        <Description>
          <TranslatedText xml:lang="en">End Date/Time of Adverse Event</TranslatedText>
        </Description>
        <def:Origin Type="CRF"/>
      </ItemDef>
      <ItemDef OID="IT.CM.STUDYID" Name="STUDYID" DataType="text">
        <Description>
          <TranslatedText xml:lang="en">Study Identifier</TranslatedText>
        </Description>
        <def:Origin Type="CRF"/>
      </ItemDef>
      <ItemDef OID="IT.CM.DOMAIN" Name="DOMAIN" DataType="text">
        <Description>
          <TranslatedText xml:lang="en">Domain Abbreviation</TranslatedText>
        </Description>
        <def:Origin Type="CRF"/>
      </ItemDef>
      <ItemDef OID="IT.CM.USUBJID" Name="USUBJID" DataType="text">
        <Description>
          <TranslatedText xml:lang="en">Unique Subject Identifier</TranslatedText>
        </Description>
        <def:Origin Type="CRF"/>
      </ItemDef>
      <ItemDef OID="IT.CM.CMSEQ" Name="CMSEQ" DataType="integer">
        <Description>
          <TranslatedText xml:lang="en">Sequence Number</TranslatedText>
        </Description>
        <def:Origin Type="CRF"/>
      </ItemDef>
      <ItemDef OID="IT.CM.CMTRT" Name="CMTRT" DataType="text">
        <Description>
          <TranslatedText xml:lang="en">Reported Name of Drug, Med, or Therapy</TranslatedText>
        </Description>
        <def:Origin Type="CRF"/>
      </ItemDef>
      <ItemDef OID="IT.CM.CMDECOD" Name="CMDECOD" DataType="text">
        <Description>
          <TranslatedText xml:lang="en">Standardized Medication Name</TranslatedText>
        </Description>
        <def:Origin Type="CRF"/>
      </ItemDef>
      <ItemDef OID="IT.CM.CMCAT" Name="CMCAT" DataType="text">
        <Description>
          <TranslatedText xml:lang="en">Category for Medication</TranslatedText>
        </Description>
        <def:Origin Type="CRF"/>
      </ItemDef>
      <ItemDef OID="IT.CM.CMDOSE" Name="CMDOSE" DataType="float">
        <Description>
          <TranslatedText xml:lang="en">Dose per Administration</TranslatedText>
        </Description>
        <def:Origin Type="CRF"/>
      </ItemDef>
      <ItemDef OID="IT.CM.CMDOSU" Name="CMDOSU" DataType="text">
        <Description>
          <TranslatedText xml:lang="en">Dose Units</TranslatedText>
        </Description>
        <CodeListRef CodeListOID="CL.UNIT"/>
        <def:Origin Type="CRF"/>
      </ItemDef>
      <ItemDef OID="IT.CM.CMROUTE" Name="CMROUTE" DataType="text">
        <Description>
          <TranslatedText xml:lang="en">Route of Administration</TranslatedText>
        </Description>
        <CodeListRef CodeListOID="CL.ROUTE"/>
        <def:Origin Type="CRF"/>
      </ItemDef>
      <ItemDef OID="IT.CM.CMSTDTC" Name="CMSTDTC" DataType="datetime">
        <Description>
          <TranslatedText xml:lang="en">Start Date/Time of Medication</TranslatedText>
        </Description>
        <def:Origin Type="CRF"/>
      </ItemDef>
      <ItemDef OID="IT.CM.CMENDTC" Name="CMENDTC" DataType="datetime">
        <Description>
          <TranslatedText xml:lang="en">End Date/Time of Medication</TranslatedText>
        </Description>
        <def:Origin Type="CRF"/>
      </ItemDef>
      <ItemDef OID="IT.VS.STUDYID" Name="STUDYID" DataType="text">
        <Description>
          <TranslatedText xml:lang="en">Study Identifier</TranslatedText>
        </Description>
        <def:Origin Type="CRF"/>
      </ItemDef>
      <ItemDef OID="IT.VS.DOMAIN" Name="DOMAIN" DataType="text">
        <Description>
          <TranslatedText xml:lang="en">Domain Abbreviation</TranslatedText>
        </Description>
        <def:Origin Type="CRF"/>
      </ItemDef>
      <ItemDef OID="IT.VS.USUBJID" Name="USUBJID" DataType="text">
        <Description>
          <TranslatedText xml:lang="en">Unique Subject Identifier</TranslatedText>
        </Description>
        <def:Origin Type="CRF"/>
      </ItemDef>
      <ItemDef OID="IT.VS.VSSEQ" Name="VSSEQ" DataType="integer">
        <Description>
          <TranslatedText xml:lang="en">Sequence Number</TranslatedText>
        </Description>
        <def:Origin Type="CRF"/>
      </ItemDef>
      <ItemDef OID="IT.VS.VSTESTCD" Name="VSTESTCD" DataType="text">
        <Description>
          <TranslatedText xml:lang="en">Vital Signs Test Short Name</TranslatedText>
        </Description>
        <CodeListRef CodeListOID="CL.VSTESTCD"/>
        <def:Origin Type="CRF"/>
      </ItemDef>
      <ItemDef OID="IT.VS.VSTEST" Name="VSTEST" DataType="text">
        <Description>
          <TranslatedText xml:lang="en">Vital Signs Test Name</TranslatedText>
        </Description>
        <CodeListRef CodeListOID="CL.VSTEST"/>
        <def:Origin Type="CRF"/>
      </ItemDef>
      <ItemDef OID="IT.VS.VSORRES" Name="VSORRES" DataType="text">
        <Description>
          <TranslatedText xml:lang="en">Result or Finding in Original Units</TranslatedText>
        </Description>
        <def:Origin Type="CRF"/>
      </ItemDef>
      <ItemDef OID="IT.VS.VSORRESU" Name="VSORRESU" DataType="text">
        <Description>
          <TranslatedText xml:lang="en">Original Units</TranslatedText>
        </Description>
        <CodeListRef CodeListOID="CL.VSRESU"/>
        <def:Origin Type="CRF"/>
      </ItemDef>
      <ItemDef OID="IT.VS.VSSTRESC" Name="VSSTRESC" DataType="text">
        <Description>
          <TranslatedText xml:lang="en">Character Result/Finding in Std Format</TranslatedText>
        </Description>
        <def:Origin Type="CRF"/>
      </ItemDef>
      <ItemDef OID="IT.VS.VSSTRESN" Name="VSSTRESN" DataType="float">
        <Description>
          <TranslatedText xml:lang="en">Numeric Result/Finding in Standard Units</TranslatedText>
        </Description>
        <def:Origin Type="CRF"/>
      </ItemDef>
      <ItemDef OID="IT.VS.VSSTRESU" Name="VSSTRESU" DataType="text">
        <Description>
          <TranslatedText xml:lang="en">Standard Units</TranslatedText>
        </Description>
        <CodeListRef CodeListOID="CL.VSRESU"/>
        <def:Origin Type="CRF"/>
      </ItemDef>
      <ItemDef OID="IT.VS.VSSTAT" Name="VSSTAT" DataType="text">
        <Description>
          <TranslatedText xml:lang="en">Completion Status</TranslatedText>
        </Description>
        <CodeListRef CodeListOID="CL.STAT"/>
        <def:Origin Type="CRF"/>
      </ItemDef>
      <ItemDef OID="IT.VS.VISITNUM" Name="VISITNUM" DataType="float">
        <Description>
          <TranslatedText xml:lang="en">Visit Number</TranslatedText>
        </Description>
        <def:Origin Type="CRF"/>
      </ItemDef>
      <ItemDef OID="IT.VS.VISIT" Name="VISIT" DataType="text">
        <Description>
          <TranslatedText xml:lang="en">Visit Name</TranslatedText>
        </Description>
        <def:Origin Type="CRF"/>
      </ItemDef>
      <ItemDef OID="IT.VS.VSDTC" Name="VSDTC" DataType="datetime">
        <Description>
          <TranslatedText xml:lang="en">Date/Time of Measurements</TranslatedText>
        </Description>
        <def:Origin Type="CRF"/>
      </ItemDef>
      <ItemDef OID="IT.EX.STUDYID" Name="STUDYID" DataType="text">
        <Description>
          <TranslatedText xml:lang="en">Study Identifier</TranslatedText>
        </Description>
        <def:Origin Type="CRF"/>
      </ItemDef>
      <ItemDef OID="IT.EX.DOMAIN" Name="DOMAIN" DataType="text">
        <Description>
          <TranslatedText xml:lang="en">Domain Abbreviation</TranslatedText>
        </Description>
        <def:Origin Type="CRF"/>
      </ItemDef>
      <ItemDef OID="IT.EX.USUBJID" Name="USUBJID" DataType="text">
        <Description>
          <TranslatedText xml:lang="en">Unique Subject Identifier</TranslatedText>
        </Description>
        <def:Origin Type="CRF"/>
      </ItemDef>
      <ItemDef OID="IT.EX.EXSEQ" Name="EXSEQ" DataType="integer">
        <Description>
          <TranslatedText xml:lang="en">Sequence Number</TranslatedText>
        </Description>
        <def:Origin Type="CRF"/>
      </ItemDef>
      <ItemDef OID="IT.EX.EXTRT" Name="EXTRT" DataType="text">
        <Description>
          <TranslatedText xml:lang="en">Name of Treatment</TranslatedText>
        </Description>
        <def:Origin Type="CRF"/>
      </ItemDef>
      <ItemDef OID="IT.EX.EXDOSE" Name="EXDOSE" DataType="float">
        <Description>
          <TranslatedText xml:lang="en">Dose</TranslatedText>
        </Description>
        <def:Origin Type="CRF"/>
      </ItemDef>
      <ItemDef OID="IT.EX.EXDOSU" Name="EXDOSU" DataType="text">
        <Description>
          <TranslatedText xml:lang="en">Dose Units</TranslatedText>
        </Description>
        <CodeListRef CodeListOID="CL.UNIT"/>
        <def:Origin Type="CRF"/>
      </ItemDef>
      <ItemDef OID="IT.EX.EXDOSFRM" Name="EXDOSFRM" DataType="text">
        <Description>
          <TranslatedText xml:lang="en">Dose Form</TranslatedText>
        </Description>
        <CodeListRef CodeListOID="CL.FRM"/>
        <def:Origin Type="CRF"/>
      </ItemDef>
      <ItemDef OID="IT.EX.EXROUTE" Name="EXROUTE" DataType="text">
        <Description>
          <TranslatedText xml:lang="en">Route of Administration</TranslatedText>
        </Description>
        <CodeListRef CodeListOID="CL.ROUTE"/>
        <def:Origin Type="CRF"/>
      </ItemDef>
      <ItemDef OID="IT.EX.EXSTDTC" Name="EXSTDTC" DataType="datetime">
        <Description>
          <TranslatedText xml:lang="en">Start Date/Time of Treatment</TranslatedText>
        </Description>
        <def:Origin Type="CRF"/>
      </ItemDef>
      <ItemDef OID="IT.EX.EXENDTC" Name="EXENDTC" DataType="datetime">
        <Description>
          <TranslatedText xml:lang="en">End Date/Time of Treatment</TranslatedText>
        </Description>
        <def:Origin Type="CRF"/>
      </ItemDef>
      <ItemDef OID="IT.EX.VISITNUM" Name="VISITNUM" DataType="float">
        <Description>
          <TranslatedText xml:lang="en">Visit Number</TranslatedText>
        </Description>
        <def:Origin Type="CRF"/>
      </ItemDef>
      <ItemDef OID="IT.EX.VISIT" Name="VISIT" DataType="text">
        <Description>
          <TranslatedText xml:lang="en">Visit Name</TranslatedText>
        </Description>
        <def:Origin Type="CRF"/>
      </ItemDef>
      <ItemDef OID="IT.MH.STUDYID" Name="STUDYID" DataType="text">
        <Description>
          <TranslatedText xml:lang="en">Study Identifier</TranslatedText>
        </Description>
        <def:Origin Type="CRF"/>
      </ItemDef>
      <ItemDef OID="IT.MH.DOMAIN" Name="DOMAIN" DataType="text">
        <Description>
          <TranslatedText xml:lang="en">Domain Abbreviation</TranslatedText>
        </Description>
        <def:Origin Type="CRF"/>
      </ItemDef>
      <ItemDef OID="IT.MH.USUBJID" Name="USUBJID" DataType="text">
        <Description>
          <TranslatedText xml:lang="en">Unique Subject Identifier</TranslatedText>
        </Description>
        <def:Origin Type="CRF"/>
      </ItemDef>
      <ItemDef OID="IT.MH.MHSEQ" Name="MHSEQ" DataType="integer">
        <Description>
          <TranslatedText xml:lang="en">Sequence Number</TranslatedText>
        </Description>
        <def:Origin Type="CRF"/>
      </ItemDef>
      <ItemDef OID="IT.MH.MHTERM" Name="MHTERM" DataType="text">
        <Description>
          <TranslatedText xml:lang="en">Reported Term for the Medical History</TranslatedText>
        </Description>
        <def:Origin Type="CRF"/>
      </ItemDef>
      <ItemDef OID="IT.MH.MHDECOD" Name="MHDECOD" DataType="text">
        <Description>
          <TranslatedText xml:lang="en">Dictionary-Derived Term</TranslatedText>
        </Description>
        <def:Origin Type="CRF"/>
      </ItemDef>
      <ItemDef OID="IT.MH.MHCAT" Name="MHCAT" DataType="text">
        <Description>
          <TranslatedText xml:lang="en">Category for Medical History</TranslatedText>
        </Description>
        <def:Origin Type="CRF"/>
      </ItemDef>
      <ItemDef OID="IT.MH.MHBODSYS" Name="MHBODSYS" DataType="text">
        <Description>
          <TranslatedText xml:lang="en">Body System or Organ Class</TranslatedText>
        </Description>
        <def:Origin Type="CRF"/>
      </ItemDef>
      <ItemDef OID="IT.MH.MHSTDTC" Name="MHSTDTC" DataType="datetime">
        <Description>
          <TranslatedText xml:lang="en">Start Date/Time of Medical History Event</TranslatedText>
        </Description>
        <def:Origin Type="CRF"/>
      </ItemDef>
      <ItemDef OID="IT.MH.MHENDTC" Name="MHENDTC" DataType="datetime">
        <Description>
          <TranslatedText xml:lang="en">End Date/Time of Medical History Event</TranslatedText>
        </Description>
        <def:Origin Type="CRF"/>
      </ItemDef>
      <ItemDef OID="IT.DM.STUDYID" Name="STUDYID" DataType="text">
        <Description>
          <TranslatedText xml:lang="en">Study Identifier</TranslatedText>
        </Description>
        <def:Origin Type="CRF"/>
      </ItemDef>
      <ItemDef OID="IT.DM.DOMAIN" Name="DOMAIN" DataType="text">
        <Description>
          <TranslatedText xml:lang="en">Domain Abbreviation</TranslatedText>
        </Description>
        <def:Origin Type="CRF"/>
      </ItemDef>
      <ItemDef OID="IT.DM.USUBJID" Name="USUBJID" DataType="text">
        <Description>
          <TranslatedText xml:lang="en">Unique Subject Identifier</TranslatedText>
        </Description>
        <def:Origin Type="CRF"/>
      </ItemDef>
      <ItemDef OID="IT.DM.SUBJID" Name="SUBJID" DataType="text">
        <Description>
          <TranslatedText xml:lang="en">Subject Identifier for the Study</TranslatedText>
        </Description>
        <def:Origin Type="CRF"/>
      </ItemDef>
      <ItemDef OID="IT.DM.RFSTDTC" Name="RFSTDTC" DataType="datetime">
        <Description>
          <TranslatedText xml:lang="en">Subject Reference Start Date/Time</TranslatedText>
        </Description>
        <def:Origin Type="CRF"/>
      </ItemDef>
      <ItemDef OID="IT.DM.RFENDTC" Name="RFENDTC" DataType="datetime">
        <Description>
          <TranslatedText xml:lang="en">Subject Reference End Date/Time</TranslatedText>
        </Description>
        <def:Origin Type="CRF"/>
      </ItemDef>
      <ItemDef OID="IT.DM.SITEID" Name="SITEID" DataType="text">
        <Description>
          <TranslatedText xml:lang="en">Study Site Identifier</TranslatedText>
        </Description>
        <def:Origin Type="CRF"/>
      </ItemDef>
      <ItemDef OID="IT.DM.BRTHDTC" Name="BRTHDTC" DataType="datetime">
        <Description>
          <TranslatedText xml:lang="en">Date/Time of Birth</TranslatedText>
        </Description>
        <def:Origin Type="CRF"/>
      </ItemDef>
      <ItemDef OID="IT.DM.AGE" Name="AGE" DataType="integer">
        <Description>
          <TranslatedText xml:lang="en">Age</TranslatedText>
        </Description>
        <def:Origin Type="CRF"/>
      </ItemDef>
      <ItemDef OID="IT.DM.AGEU" Name="AGEU" DataType="text">
        <Description>
          <TranslatedText xml:lang="en">Age Units</TranslatedText>
        </Description>
        <CodeListRef CodeListOID="CL.AGEU"/>
        <def:Origin Type="CRF"/>
      </ItemDef>
      <ItemDef OID="IT.DM.SEX" Name="SEX" DataType="text">
        <Description>
          <TranslatedText xml:lang="en">Sex</TranslatedText>
        </Description>
        <CodeListRef CodeListOID="CL.SEX"/>
        <def:Origin Type="CRF"/>
      </ItemDef>
      <ItemDef OID="IT.DM.RACE" Name="RACE" DataType="text">
        <Description>
          <TranslatedText xml:lang="en">Race</TranslatedText>
        </Description>
        <CodeListRef CodeListOID="CL.RACE"/>
        <def:Origin Type="CRF"/>
      </ItemDef>
      <ItemDef OID="IT.DM.ETHNIC" Name="ETHNIC" DataType="text">
        <Description>
          <TranslatedText xml:lang="en">Ethnicity</TranslatedText>
        </Description>
        <CodeListRef CodeListOID="CL.ETHNIC"/>
        <def:Origin Type="CRF"/>
      </ItemDef>
      <ItemDef OID="IT.DM.ARMCD" Name="ARMCD" DataType="text">
        <Description>
          <TranslatedText xml:lang="en">Planned Arm Code</TranslatedText>
        </Description>
        <def:Origin Type="CRF"/>
      </ItemDef>
      <ItemDef OID="IT.DM.ARM" Name="ARM" DataType="text">
        <Description>
          <TranslatedText xml:lang="en">Description of Planned Arm</TranslatedText>
        </Description>
        <def:Origin Type="CRF"/>
      </ItemDef>
      <ItemDef OID="IT.DM.COUNTRY" Name="COUNTRY" DataType="text">
        <Description>
          <TranslatedText xml:lang="en">Country</TranslatedText>
        </Description>
        <CodeListRef CodeListOID="CL.COUNTRY"/>
        <def:Origin Type="CRF"/>
      </ItemDef>
      <ItemDef OID="IT.DS.STUDYID" Name="STUDYID" DataType="text">
        <Description>
          <TranslatedText xml:lang="en">Study Identifier</TranslatedText>
        </Description>
        <def:Origin Type="CRF"/>
      </ItemDef>
      <ItemDef OID="IT.DS.DOMAIN" Name="DOMAIN" DataType="text">
        <Description>
          <TranslatedText xml:lang="en">Domain Abbreviation</TranslatedText>
        </Description>
        <def:Origin Type="CRF"/>
      </ItemDef>
      <ItemDef OID="IT.DS.USUBJID" Name="USUBJID" DataType="text">
        <Description>
          <TranslatedText xml:lang="en">Unique Subject Identifier</TranslatedText>
        </Description>
        <def:Origin Type="CRF"/>
      </ItemDef>
      <ItemDef OID="IT.DS.DSSEQ" Name="DSSEQ" DataType="integer">
        <Description>
          <TranslatedText xml:lang="en">Sequence Number</TranslatedText>
        </Description>
        <def:Origin Type="CRF"/>
      </ItemDef>
      <ItemDef OID="IT.DS.DSTERM" Name="DSTERM" DataType="text">
        <Description>
          <TranslatedText xml:lang="en">Reported Term for the Disposition Event</TranslatedText>
        </Description>
        <def:Origin Type="CRF"/>
      </ItemDef>
      <ItemDef OID="IT.DS.DSDECOD" Name="DSDECOD" DataType="text">
        <Description>
          <TranslatedText xml:lang="en">Standardized Disposition Term</TranslatedText>
        </Description>
        <CodeListRef CodeListOID="CL.NCOMPLT"/>
        <def:Origin Type="CRF"/>
      </ItemDef>
      <ItemDef OID="IT.DS.DSCAT" Name="DSCAT" DataType="text">
        <Description>
          <TranslatedText xml:lang="en">Category for Disposition Event</TranslatedText>
        </Description>
        <def:Origin Type="CRF"/>
      </ItemDef>
      <ItemDef OID="IT.DS.DSSTDTC" Name="DSSTDTC" DataType="datetime">
        <Description>
          <TranslatedText xml:lang="en">Start Date/Time of Disposition Event</TranslatedText>
        </Description>
        <def:Origin Type="CRF"/>
      </ItemDef>
    </MetaDataVersion>
  </Study>
</ODM>