{
  "study_id": "MAXIS-08",
  "source_domain": "AEVENT.csv",
  "target_domain": "AE",
  "column_mappings": [
    {
      "source_column": "PT",
      "target_variable": "SUBJID",
      "transformation": null,
      "derivation_rule": null,
      "controlled_terminology": null,
      "comments": "Common mapping"
    },
    {
      "source_column": "AEENDT",
      "target_variable": "AEENDTC",
      "transformation": "Convert to ISO 8601",
      "derivation_rule": null,
      "controlled_terminology": null,
      "comments": "Domain-specific mapping for AE"
    },
    {
      "source_column": "AESTDT",
      "target_variable": "AESTDTC",
      "transformation": "Convert to ISO 8601",
      "derivation_rule": null,
      "controlled_terminology": null,
      "comments": "Domain-specific mapping for AE"
    },
    {
      "source_column": "STUDY",
      "target_variable": "STUDYID",
      "transformation": null,
      "derivation_rule": null,
      "controlled_terminology": null,
      "comments": "Common mapping"
    },
    {
      "source_column": "AESEV",
      "target_variable": "AESEV",
      "transformation": null,
      "derivation_rule": null,
      "controlled_terminology": null,
      "comments": "Domain-specific mapping for AE"
    },
    {
      "source_column": "AEREL",
      "target_variable": "AEREL",
      "transformation": null,
      "derivation_rule": null,
      "controlled_terminology": null,
      "comments": "Domain-specific mapping for AE"
    },
    {
      "source_column": "VISIT",
      "target_variable": "AEVISIT",
      "transformation": null,
      "derivation_rule": null,
      "controlled_terminology": null,
      "comments": "Common mapping"
    },
    {
      "source_column": "INVSITE",
      "target_variable": "SITEID",
      "transformation": null,
      "derivation_rule": null,
      "controlled_terminology": null,
      "comments": "Common mapping"
    },
    {
      "source_column": "",
      "target_variable": "DOMAIN",
      "transformation": null,
      "derivation_rule": "'AE'",
      "controlled_terminology": null,
      "comments": "Constant value"
    },
    {
      "source_column": "",
      "target_variable": "USUBJID",
      "transformation": null,
      "derivation_rule": "STUDYID || '-' || SITEID || '-' || SUBJID",
      "controlled_terminology": null,
      "comments": "Derived unique subject identifier"
    },
    {
      "source_column": "",
      "target_variable": "AESEQ",
      "transformation": null,
      "derivation_rule": "Row number within USUBJID",
      "controlled_terminology": null,
      "comments": "Derived sequence number"
    }
  ],
  "derivation_rules": {
    "AESEQ": "ROW_NUMBER() OVER (PARTITION BY USUBJID ORDER BY AEDTC)",
    "USUBJID": "STUDYID || '-' || SITEID || '-' || SUBJID",
    "DOMAIN": "'AE'",
    "AESTDY": "AESTDTC - RFSTDTC + 1 (if AESTDTC >= RFSTDTC) else AESTDTC - RFSTDTC",
    "AEENDY": "AEENDTC - RFSTDTC + 1 (if AEENDTC >= RFSTDTC) else AEENDTC - RFSTDTC"
  },
  "controlled_terminologies": {
    "AESEV": [
      "MILD",
      "MODERATE",
      "SEVERE"
    ],
    "AEREL": [
      "NOT RELATED",
      "UNLIKELY RELATED",
      "POSSIBLY RELATED",
      "RELATED",
      "PROBABLY RELATED",
      "DEFINITELY RELATED"
    ]
  },
  "created_at": "2026-01-21T00:19:24.160577",
  "created_by": "SDTM Pipeline",
  "version": "1.0",
  "comments": "Auto-generated mapping for AEVENT.csv to SDTM AE"
}