{
  "study_id": "MAXIS-08",
  "source_domain": "COMGEN.csv",
  "target_domain": "CO",
  "column_mappings": [
    {
      "source_column": "STUDY",
      "target_variable": "STUDYID",
      "transformation": null,
      "derivation_rule": null,
      "controlled_terminology": null,
      "comments": "Direct mapping of study identifier"
    },
    {
      "source_column": null,
      "target_variable": "DOMAIN",
      "transformation": "Constant value 'CO'",
      "derivation_rule": "Set to 'CO' for Comments domain",
      "controlled_terminology": null,
      "comments": "Domain constant for Comments"
    },
    {
      "source_column": "REPEATSN",
      "target_variable": "COSEQ",
      "transformation": null,
      "derivation_rule": null,
      "controlled_terminology": null,
      "comments": "Sequence number for comments records"
    },
    {
      "source_column": "GNCOM",
      "target_variable": "COVAL",
      "transformation": null,
      "derivation_rule": null,
      "controlled_terminology": null,
      "comments": "Comment text content"
    },
    {
      "source_column": "STUDY + PT",
      "target_variable": "USUBJID",
      "transformation": "Concatenate STUDY + '-' + PT",
      "derivation_rule": "STUDY + '-' + PT",
      "controlled_terminology": null,
      "comments": "Unique subject identifier derived from study and patient ID"
    },
    {
      "source_column": "DCMNAME",
      "target_variable": "RDOMAIN",
      "transformation": "Extract domain from form name",
      "derivation_rule": "Parse domain from 'GN_COMMENTS' or map to appropriate domain",
      "controlled_terminology": null,
      "comments": "Related domain where comment applies - may need mapping logic"
    },
    {
      "source_column": "GNQS1",
      "target_variable": "IDVAR",
      "transformation": "Map to appropriate ID variable name",
      "derivation_rule": "Determine ID variable name based on RDOMAIN",
      "controlled_terminology": null,
      "comments": "Identifying variable name in related domain"
    },
    {
      "source_column": "GNQS1",
      "target_variable": "IDVARVAL",
      "transformation": "Convert to character",
      "derivation_rule": null,
      "controlled_terminology": null,
      "comments": "Value of the identifying variable"
    },
    {
      "source_column": "GNDT",
      "target_variable": "CODTC",
      "transformation": "Convert to ISO 8601 format",
      "derivation_rule": "Format date as YYYY-MM-DDTHH:MM:SS",
      "controlled_terminology": null,
      "comments": "Date/time of comment in ISO 8601 format"
    }
  ],
  "derivation_rules": {
    "USUBJID": "STUDYID || '-' || SITEID || '-' || SUBJID",
    "COSEQ": "ROW_NUMBER() OVER (PARTITION BY USUBJID ORDER BY CODTC)"
  },
  "controlled_terminologies": {},
  "created_at": "2026-01-20T15:29:23.299456",
  "created_by": "SDTM Pipeline",
  "version": "1.0",
  "comments": "Auto-generated mapping for COMGEN.csv to SDTM CO"
}