{
  "study_id": "MAXIS-08",
  "source_domain": "ECG.csv",
  "target_domain": "EG",
  "column_mappings": [
    {
      "source_column": "STUDY",
      "target_variable": "STUDYID",
      "transformation": null,
      "derivation_rule": null,
      "controlled_terminology": null,
      "comments": "Common mapping"
    },
    {
      "source_column": "PT",
      "target_variable": "SUBJID",
      "transformation": null,
      "derivation_rule": null,
      "controlled_terminology": null,
      "comments": "Common mapping"
    },
    {
      "source_column": "VISIT",
      "target_variable": "EGVISIT",
      "transformation": null,
      "derivation_rule": null,
      "controlled_terminology": null,
      "comments": "Common mapping"
    },
    {
      "source_column": "INVSITE",
      "target_variable": "SITEID",
      "transformation": null,
      "derivation_rule": null,
      "controlled_terminology": null,
      "comments": "Common mapping"
    },
    {
      "source_column": "",
      "target_variable": "DOMAIN",
      "transformation": null,
      "derivation_rule": "'EG'",
      "controlled_terminology": null,
      "comments": "Constant value"
    },
    {
      "source_column": "",
      "target_variable": "USUBJID",
      "transformation": null,
      "derivation_rule": "STUDYID || '-' || SITEID || '-' || SUBJID",
      "controlled_terminology": null,
      "comments": "Derived unique subject identifier"
    },
    {
      "source_column": "",
      "target_variable": "EGSEQ",
      "transformation": null,
      "derivation_rule": "Row number within USUBJID",
      "controlled_terminology": null,
      "comments": "Derived sequence number"
    }
  ],
  "derivation_rules": {
    "EGSEQ": "ROW_NUMBER() OVER (PARTITION BY USUBJID ORDER BY EGDTC)",
    "USUBJID": "STUDYID || '-' || SITEID || '-' || SUBJID",
    "DOMAIN": "'EG'"
  },
  "controlled_terminologies": {},
  "created_at": "2026-01-21T00:19:52.048949",
  "created_by": "SDTM Pipeline",
  "version": "1.0",
  "comments": "Auto-generated mapping for ECG.csv to SDTM EG"
}