{
  "study_id": "MAXIS-08",
  "source_domain": "DOSE.csv",
  "target_domain": "EX",
  "column_mappings": [
    {
      "source_column": "STUDY",
      "target_variable": "STUDYID",
      "transformation": null,
      "derivation_rule": null,
      "controlled_terminology": null,
      "comments": "Common mapping"
    },
    {
      "source_column": "PT",
      "target_variable": "SUBJID",
      "transformation": null,
      "derivation_rule": null,
      "controlled_terminology": null,
      "comments": "Common mapping"
    },
    {
      "source_column": "VISIT",
      "target_variable": "EXVISIT",
      "transformation": null,
      "derivation_rule": null,
      "controlled_terminology": null,
      "comments": "Common mapping"
    },
    {
      "source_column": "INVSITE",
      "target_variable": "SITEID",
      "transformation": null,
      "derivation_rule": null,
      "controlled_terminology": null,
      "comments": "Common mapping"
    },
    {
      "source_column": "",
      "target_variable": "DOMAIN",
      "transformation": null,
      "derivation_rule": "'EX'",
      "controlled_terminology": null,
      "comments": "Constant value"
    },
    {
      "source_column": "",
      "target_variable": "USUBJID",
      "transformation": null,
      "derivation_rule": "STUDYID || '-' || SITEID || '-' || SUBJID",
      "controlled_terminology": null,
      "comments": "Derived unique subject identifier"
    },
    {
      "source_column": "",
      "target_variable": "EXSEQ",
      "transformation": null,
      "derivation_rule": "Row number within USUBJID",
      "controlled_terminology": null,
      "comments": "Derived sequence number"
    }
  ],
  "derivation_rules": {
    "EXSEQ": "ROW_NUMBER() OVER (PARTITION BY USUBJID ORDER BY EXDTC)",
    "USUBJID": "STUDYID || '-' || SITEID || '-' || SUBJID",
    "DOMAIN": "'EX'",
    "EXSTDY": "EXSTDTC - RFSTDTC + 1 (if EXSTDTC >= RFSTDTC) else EXSTDTC - RFSTDTC"
  },
  "controlled_terminologies": {},
  "created_at": "2026-01-22T12:23:40.675930",
  "created_by": "SDTM Pipeline",
  "version": "1.0",
  "comments": "Auto-generated mapping for DOSE.csv to SDTM EX"
}