{
  "study_id": "MAXIS-08",
  "source_domain": "GENOLAB.csv",
  "target_domain": "LB",
  "column_mappings": [
    {
      "source_column": "STUDY",
      "target_variable": "STUDYID",
      "transformation": null,
      "derivation_rule": null,
      "controlled_terminology": null,
      "comments": "Common mapping"
    },
    {
      "source_column": "PT",
      "target_variable": "SUBJID",
      "transformation": null,
      "derivation_rule": null,
      "controlled_terminology": null,
      "comments": "Common mapping"
    },
    {
      "source_column": "VISIT",
      "target_variable": "LBVISIT",
      "transformation": null,
      "derivation_rule": null,
      "controlled_terminology": null,
      "comments": "Common mapping"
    },
    {
      "source_column": "INVSITE",
      "target_variable": "SITEID",
      "transformation": null,
      "derivation_rule": null,
      "controlled_terminology": null,
      "comments": "Common mapping"
    },
    {
      "source_column": "",
      "target_variable": "DOMAIN",
      "transformation": null,
      "derivation_rule": "'LB'",
      "controlled_terminology": null,
      "comments": "Constant value"
    },
    {
      "source_column": "",
      "target_variable": "USUBJID",
      "transformation": null,
      "derivation_rule": "STUDYID || '-' || SITEID || '-' || SUBJID",
      "controlled_terminology": null,
      "comments": "Derived unique subject identifier"
    },
    {
      "source_column": "",
      "target_variable": "LBSEQ",
      "transformation": null,
      "derivation_rule": "Row number within USUBJID",
      "controlled_terminology": null,
      "comments": "Derived sequence number"
    }
  ],
  "derivation_rules": {
    "LBSEQ": "ROW_NUMBER() OVER (PARTITION BY USUBJID ORDER BY LBDTC)",
    "USUBJID": "STUDYID || '-' || SITEID || '-' || SUBJID",
    "DOMAIN": "'LB'",
    "LBSTRESC": "LBORRES converted to standard format",
    "LBSTRESN": "Numeric conversion of LBSTRESC where applicable",
    "LBNRIND": "Derived: 'NORMAL' if LBSTNRLO <= LBSTRESN <= LBSTNRHI, 'LOW' if < LBSTNRLO, 'HIGH' if > LBSTNRHI",
    "LBBLFL": "'Y' for baseline records, null otherwise"
  },
  "controlled_terminologies": {},
  "created_at": "2026-01-21T00:20:02.942862",
  "created_by": "SDTM Pipeline",
  "version": "1.0",
  "comments": "Auto-generated mapping for GENOLAB.csv to SDTM LB"
}