{
  "study_id": "MAXIS-08",
  "source_domain": "XRAYSAMP.csv",
  "target_domain": "PE",
  "column_mappings": [
    {
      "source_column": "STUDY",
      "target_variable": "STUDYID",
      "transformation": null,
      "derivation_rule": null,
      "controlled_terminology": null,
      "comments": "Common mapping"
    },
    {
      "source_column": "PT",
      "target_variable": "SUBJID",
      "transformation": null,
      "derivation_rule": null,
      "controlled_terminology": null,
      "comments": "Common mapping"
    },
    {
      "source_column": "VISIT",
      "target_variable": "PEVISIT",
      "transformation": null,
      "derivation_rule": null,
      "controlled_terminology": null,
      "comments": "Common mapping"
    },
    {
      "source_column": "INVSITE",
      "target_variable": "SITEID",
      "transformation": null,
      "derivation_rule": null,
      "controlled_terminology": null,
      "comments": "Common mapping"
    },
    {
      "source_column": "",
      "target_variable": "DOMAIN",
      "transformation": null,
      "derivation_rule": "'PE'",
      "controlled_terminology": null,
      "comments": "Constant value"
    },
    {
      "source_column": "",
      "target_variable": "USUBJID",
      "transformation": null,
      "derivation_rule": "STUDYID || '-' || SITEID || '-' || SUBJID",
      "controlled_terminology": null,
      "comments": "Derived unique subject identifier"
    },
    {
      "source_column": "",
      "target_variable": "PESEQ",
      "transformation": null,
      "derivation_rule": "Row number within USUBJID",
      "controlled_terminology": null,
      "comments": "Derived sequence number"
    }
  ],
  "derivation_rules": {
    "PESEQ": "ROW_NUMBER() OVER (PARTITION BY USUBJID ORDER BY PEDTC)",
    "USUBJID": "STUDYID || '-' || SITEID || '-' || SUBJID",
    "DOMAIN": "'PE'"
  },
  "controlled_terminologies": {},
  "created_at": "2026-01-21T00:19:55.124876",
  "created_by": "SDTM Pipeline",
  "version": "1.0",
  "comments": "Auto-generated mapping for XRAYSAMP.csv to SDTM PE"
}