{
  "study_id": "MAXIS-08",
  "source_domain": "VITALS.csv",
  "target_domain": "VS",
  "column_mappings": [
    {
      "source_column": "PT",
      "target_variable": "SUBJID",
      "transformation": null,
      "derivation_rule": null,
      "controlled_terminology": null,
      "comments": "Common mapping"
    },
    {
      "source_column": "STUDY",
      "target_variable": "STUDYID",
      "transformation": null,
      "derivation_rule": null,
      "controlled_terminology": null,
      "comments": "Common mapping"
    },
    {
      "source_column": "VISIT",
      "target_variable": "VSVISIT",
      "transformation": null,
      "derivation_rule": null,
      "controlled_terminology": null,
      "comments": "Common mapping"
    },
    {
      "source_column": "INVSITE",
      "target_variable": "SITEID",
      "transformation": null,
      "derivation_rule": null,
      "controlled_terminology": null,
      "comments": "Common mapping"
    },
    {
      "source_column": "",
      "target_variable": "DOMAIN",
      "transformation": null,
      "derivation_rule": "'VS'",
      "controlled_terminology": null,
      "comments": "Constant value"
    },
    {
      "source_column": "",
      "target_variable": "USUBJID",
      "transformation": null,
      "derivation_rule": "STUDYID || '-' || SITEID || '-' || SUBJID",
      "controlled_terminology": null,
      "comments": "Derived unique subject identifier"
    },
    {
      "source_column": "",
      "target_variable": "VSSEQ",
      "transformation": null,
      "derivation_rule": "Row number within USUBJID",
      "controlled_terminology": null,
      "comments": "Derived sequence number"
    }
  ],
  "derivation_rules": {
    "VSSEQ": "ROW_NUMBER() OVER (PARTITION BY USUBJID ORDER BY VSDTC)",
    "USUBJID": "STUDYID || '-' || SITEID || '-' || SUBJID",
    "DOMAIN": "'VS'",
    "VSSTRESC": "VSORRES converted to standard format",
    "VSSTRESN": "Numeric conversion of VSSTRESC where applicable",
    "VSBLFL": "'Y' for baseline records, null otherwise"
  },
  "controlled_terminologies": {},
  "created_at": "2026-01-22T12:23:40.467180",
  "created_by": "SDTM Pipeline",
  "version": "1.0",
  "comments": "Auto-generated mapping for VITALS.csv to SDTM VS"
}