STUDYID,DOMAIN,USUBJID,AESEQ,AETERM,AEDECOD,AELLT,AELLTCD,AEHLT,AEHLTCD,AEHLGT,AEHLGTCD,AEBODSYS,AESOC,AESOCCD,AESTDTC,AEENDTC,AESEV,AEREL,AEOUT,AESER,AEACN,AESDTH,AESHOSP,AESLIFE,AESDISAB,AESCONG,AESMIE
MAXIS-08,AE,MAXIS-08-C008_408,1,NAUSEA,NAUSEA,,,NAUSEA AND VOMITING SYMPTOMS,2916,,1137,GASTROINTESTINAL DISORDERS,GASTROINTESTINAL DISORDERS,952,2008-09-10,2008-09-11,MILD,POSSIBLY RELATED,RECOVERED/RESOLVED,N,DOSE NOT CHANGED,N,N,N,N,N,N
MAXIS-08,AE,MAXIS-08-C008_408,2,INTERMITTENT VOMITING,VOMITING,,,NAUSEA AND VOMITING SYMPTOMS,2916,,1137,GASTROINTESTINAL DISORDERS,GASTROINTESTINAL DISORDERS,952,2008-09-10,2008-10-01,MILD,UNLIKELY RELATED,RECOVERED/RESOLVED,N,DOSE NOT CHANGED,N,N,N,N,N,N
MAXIS-08,AE,MAXIS-08-C008_408,3,UPPER BACK PAIN,BACK PAIN,UPPER BACK PAIN,48797,MUSCULOSKELETAL AND CONNECTIVE TISSUE PAIN AND DISCOMFORT,1982317,,988,MUSCULOSKELETAL AND CONNECTIVE TISSUE DISORDERS,MUSCULOSKELETAL AND CONNECTIVE TISSUE DISORDERS,955,2008-09-10,2008-09-11,MILD,NOT RELATED,RECOVERED/RESOLVED,N,DOSE NOT CHANGED,N,N,N,N,N,N
MAXIS-08,AE,MAXIS-08-C008_408,4,CONSTIPATION,CONSTIPATION,,,GASTROINTESTINAL ATONIC AND HYPOMOTILITY DISORDERS NEC,1346,,1228,GASTROINTESTINAL DISORDERS,GASTROINTESTINAL DISORDERS,952,2008-09-04,2008-09,MILD,UNLIKELY RELATED,RECOVERED/RESOLVED,N,DOSE NOT CHANGED,N,N,N,N,N,N
MAXIS-08,AE,MAXIS-08-C008_408,5,INTERMITTENT LEFT ARM PAIN,PAIN IN EXTREMITY,PAIN IN ARM,37068,MUSCULOSKELETAL AND CONNECTIVE TISSUE PAIN AND DISCOMFORT,1982317,,988,MUSCULOSKELETAL AND CONNECTIVE TISSUE DISORDERS,MUSCULOSKELETAL AND CONNECTIVE TISSUE DISORDERS,955,2008-09-03,2008-09-18,MILD,POSSIBLY RELATED,RECOVERED/RESOLVED,N,DOSE NOT CHANGED,N,N,N,N,N,N
MAXIS-08,AE,MAXIS-08-C008_408,6,INSOMNIA,INSOMNIA,,,DISTURBANCES IN INITIATING AND MAINTAINING SLEEP,2759,,1275,PSYCHIATRIC DISORDERS,PSYCHIATRIC DISORDERS,969,2008-09-10,2008-09-18,MILD,NOT RELATED,DOSE NOT CHANGED,N,DOSE NOT CHANGED,N,N,N,N,N,N
MAXIS-08,AE,MAXIS-08-C008_408,7,RIGHT PARAVERTEBRAL AREA PAIN,BACK PAIN,,,MUSCULOSKELETAL AND CONNECTIVE TISSUE PAIN AND DISCOMFORT,1982317,,988,MUSCULOSKELETAL AND CONNECTIVE TISSUE DISORDERS,MUSCULOSKELETAL AND CONNECTIVE TISSUE DISORDERS,955,2008-09-17,,MILD,NOT RELATED,NOT RECOVERED/NOT RESOLVED,N,DOSE NOT CHANGED,N,N,N,N,N,N
MAXIS-08,AE,MAXIS-08-C008_408,8,INTERMITTENT FATIGUE,FATIGUE,,,ASTHENIC CONDITIONS,2228,,1195,GENERAL DISORDERS AND ADMINISTRATION SITE CONDITIONS,GENERAL DISORDERS AND ADMINISTRATION SITE CONDITIONS,963,2008-09-17,,MILD,POSSIBLY RELATED,NOT RECOVERED/NOT RESOLVED,N,DOSE NOT CHANGED,N,N,N,N,N,N
MAXIS-08,AE,MAXIS-08-C008_408,9,INTERMITTENT BACK PAIN,BACK PAIN,,,MUSCULOSKELETAL AND CONNECTIVE TISSUE PAIN AND DISCOMFORT,1982317,,988,MUSCULOSKELETAL AND CONNECTIVE TISSUE DISORDERS,MUSCULOSKELETAL AND CONNECTIVE TISSUE DISORDERS,955,2008-09-24,2008-10-01,MILD,NOT RELATED,RECOVERED/RESOLVED,N,DOSE NOT CHANGED,N,N,N,N,N,N
MAXIS-08,AE,MAXIS-08-C008_408,10,BACK PAIN,BACK PAIN,,,MUSCULOSKELETAL AND CONNECTIVE TISSUE PAIN AND DISCOMFORT,1982317,,988,MUSCULOSKELETAL AND CONNECTIVE TISSUE DISORDERS,MUSCULOSKELETAL AND CONNECTIVE TISSUE DISORDERS,955,2008-10-01,2008-10-01,MODERATE,NOT RELATED,RECOVERED/RESOLVED,N,DOSE NOT CHANGED,N,N,N,N,N,N
