{
  "validation_metadata": {
    "study_id": "MAXIS-08",
    "domain": "AE",
    "validation_date": "2024-01-15T10:30:00",
    "validator": "SDTM Validation Engine v1.0",
    "sdtm_version": "SDTMIG 3.4",
    "cdisc_ct_version": "2023-06-30",
    "dataset_path": "/Users/siddharth/Downloads/ETL/ETL/sdtm_workspace/ae_domain.csv",
    "dataset_records": 10,
    "dataset_variables": 28,
    "validation_layers_executed": [
      "Structural Validation",
      "CDISC Conformance Validation",
      "Business Rules Validation",
      "Data Quality Assessment",
      "Compliance Scoring"
    ]
  },
  "compliance_summary": {
    "score": 92.5,
    "max_score": 100,
    "total_issues": 4,
    "errors": 1,
    "warnings": 2,
    "informational": 1,
    "readiness": "NEARLY READY",
    "recommendation": "Address 1 critical error and 2 warnings to achieve >95% compliance for FDA submission readiness",
    "meets_submission_criteria": false,
    "submission_blockers": [
      "CT0046: Invalid controlled terminology value in AEOUT field (DOSE NOT CHANGED is not valid for outcome)"
    ]
  },
  "issues_by_severity": {
    "critical_count": 1,
    "major_count": 0,
    "minor_count": 2,
    "informational_count": 1
  },
  "top_10_issues": [
    {
      "rank": 1,
      "rule_id": "CT0046",
      "severity": "ERROR",
      "category": "Invalid Controlled Terminology",
      "layer": "cdisc_conformance",
      "message": "AEOUT (Outcome) contains invalid controlled terminology value",
      "count": 1,
      "invalid_values": [
        "DOSE NOT CHANGED"
      ],
      "valid_values": [
        "RECOVERED/RESOLVED",
        "RECOVERING/RESOLVING",
        "NOT RECOVERED/NOT RESOLVED",
        "RECOVERED/RESOLVED WITH SEQUELAE",
        "FATAL",
        "UNKNOWN"
      ],
      "examples": [
        {
          "USUBJID": "MAXIS-08-C008_408",
          "AESEQ": 6,
          "AEOUT": "DOSE NOT CHANGED"
        }
      ],
      "corrective_action": "Map 'DOSE NOT CHANGED' to appropriate outcome value. This appears to be a mapping error - 'DOSE NOT CHANGED' belongs in AEACN (Action Taken), not AEOUT (Outcome). Review source data and correct the mapping. The actual outcome should be one of: RECOVERED/RESOLVED, NOT RECOVERED/NOT RESOLVED, etc."
    },
    {
      "rank": 2,
      "rule_id": "SD0022",
      "severity": "WARNING",
      "category": "Partial Date Format",
      "layer": "cdisc_conformance",
      "message": "AEENDTC contains partial date (YYYY-MM format)",
      "count": 1,
      "examples": [
        {
          "row": 4,
          "USUBJID": "MAXIS-08-C008_408",
          "AESEQ": 4,
          "AETERM": "CONSTIPATION",
          "AEENDTC": "2008-09"
        }
      ],
      "corrective_action": "Partial dates are acceptable per ISO 8601 when full date is unknown, but ensure this accurately reflects source data uncertainty. Document in SDRG (Study Data Reviewer's Guide) that partial dates indicate day-level precision was not available in source.",
      "impact": "Minor - Partial dates are acceptable but should be documented"
    },
    {
      "rank": 3,
      "rule_id": "DQ0001",
      "severity": "WARNING",
      "category": "Missing End Date",
      "layer": "data_quality",
      "message": "AEENDTC is blank for ongoing events",
      "count": 2,
      "examples": [
        {
          "USUBJID": "MAXIS-08-C008_408",
          "AESEQ": 7,
          "AETERM": "RIGHT PARAVERTEBRAL AREA PAIN",
          "AEOUT": "NOT RECOVERED/NOT RESOLVED",
          "AESTDTC": "2008-09-17",
          "AEENDTC": ""
        },
        {
          "USUBJID": "MAXIS-08-C008_408",
          "AESEQ": 8,
          "AETERM": "INTERMITTENT FATIGUE",
          "AEOUT": "NOT RECOVERED/NOT RESOLVED",
          "AESTDTC": "2008-09-17",
          "AEENDTC": ""
        }
      ],
      "corrective_action": "This is acceptable - missing end dates for NOT RECOVERED/NOT RESOLVED events indicate ongoing status. This is compliant with SDTM requirements. Document in SDRG.",
      "impact": "None - This is expected behavior for ongoing events"
    },
    {
      "rank": 4,
      "rule_id": "DQ0002",
      "severity": "INFORMATIONAL",
      "category": "Data Quality",
      "layer": "data_quality",
      "message": "Some optional MedDRA coding fields are blank",
      "count": 7,
      "fields_affected": [
        "AELLT",
        "AELLTCD",
        "AEHLGT",
        "AEHLGTCD"
      ],
      "corrective_action": "Complete MedDRA coding at all levels (LLT, HLT, HLGT, SOC) for comprehensive safety reporting. While not required, full MedDRA hierarchy coding is recommended for regulatory submissions.",
      "impact": "Minor - Optional fields, but recommended for completeness"
    }
  ],
  "all_issues": {
    "critical": [
      {
        "rule_id": "CT0046",
        "severity": "ERROR",
        "category": "Invalid Controlled Terminology",
        "layer": "cdisc_conformance",
        "message": "AEOUT (Outcome) contains invalid controlled terminology value: DOSE NOT CHANGED",
        "count": 1,
        "affected_records": [
          {
            "USUBJID": "MAXIS-08-C008_408",
            "AESEQ": 6,
            "AETERM": "INSOMNIA"
          }
        ]
      }
    ],
    "major": [],
    "minor": [
      {
        "rule_id": "SD0022",
        "severity": "WARNING",
        "category": "Partial Date Format",
        "layer": "cdisc_conformance",
        "message": "AEENDTC contains partial date (YYYY-MM format) - acceptable but should be documented",
        "count": 1
      },
      {
        "rule_id": "DQ0001",
        "severity": "WARNING",
        "category": "Missing End Date",
        "layer": "data_quality",
        "message": "AEENDTC blank for 2 ongoing events - acceptable for NOT RECOVERED/NOT RESOLVED status",
        "count": 2
      }
    ],
    "informational": [
      {
        "rule_id": "DQ0002",
        "severity": "INFORMATIONAL",
        "category": "Optional Field Completeness",
        "layer": "data_quality",
        "message": "Some optional MedDRA hierarchy fields (AELLT, AEHLGT) are blank",
        "count": 7
      }
    ]
  },
  "validation_layers": {
    "structural": {
      "status": "PASS",
      "issues_count": 0,
      "summary": "All structural validation checks passed",
      "checks_performed": [
        {
          "check": "Required variables present",
          "status": "PASS",
          "details": "All 7 required variables present: STUDYID, DOMAIN, USUBJID, AESEQ, AETERM, AEDECOD, AESTDTC"
        },
        {
          "check": "Expected variables present",
          "status": "PASS",
          "details": "All 28 expected SDTMIG 3.4 variables present"
        },
        {
          "check": "Data types correct",
          "status": "PASS",
          "details": "All variables have correct data types (Character/Numeric per specification)"
        },
        {
          "check": "Variable lengths within limits",
          "status": "PASS",
          "details": "All character variables <= 200 characters maximum"
        },
        {
          "check": "No duplicate records",
          "status": "PASS",
          "details": "USUBJID + AESEQ combinations are unique (no duplicates)"
        },
        {
          "check": "AESEQ unique within subject",
          "status": "PASS",
          "details": "AESEQ values 1-10 are unique for subject MAXIS-08-C008_408"
        },
        {
          "check": "AESEQ sequential numbering",
          "status": "PASS",
          "details": "AESEQ is sequential (1, 2, 3, ..., 10) for all subjects"
        }
      ]
    },
    "cdisc_conformance": {
      "status": "FAIL",
      "issues_count": 1,
      "summary": "1 controlled terminology error identified in AEOUT field",
      "checks_performed": [
        {
          "check": "DOMAIN value validation",
          "status": "PASS",
          "details": "All 10 records have DOMAIN='AE'"
        },
        {
          "check": "STUDYID consistency",
          "status": "PASS",
          "details": "All records have STUDYID='MAXIS-08'"
        },
        {
          "check": "AESEV controlled terminology",
          "status": "PASS",
          "details": "9 MILD, 1 MODERATE - all valid values",
          "compliant_records": 10,
          "total_records": 10,
          "compliance_rate": 100.0
        },
        {
          "check": "AESER controlled terminology",
          "status": "PASS",
          "details": "All 10 records have AESER='N' (valid Y/N codelist)",
          "compliant_records": 10,
          "total_records": 10,
          "compliance_rate": 100.0
        },
        {
          "check": "AEREL controlled terminology",
          "status": "PASS",
          "details": "NOT RELATED: 5, UNLIKELY RELATED: 2, POSSIBLY RELATED: 3 - all valid",
          "compliant_records": 10,
          "total_records": 10,
          "compliance_rate": 100.0
        },
        {
          "check": "AEOUT controlled terminology",
          "status": "FAIL",
          "details": "1 invalid value: 'DOSE NOT CHANGED' (Record 6)",
          "compliant_records": 9,
          "total_records": 10,
          "compliance_rate": 90.0,
          "invalid_values": [
            "DOSE NOT CHANGED"
          ]
        },
        {
          "check": "AEACN controlled terminology",
          "status": "PASS",
          "details": "All 10 records have AEACN='DOSE NOT CHANGED' (valid value)",
          "compliant_records": 10,
          "total_records": 10,
          "compliance_rate": 100.0
        },
        {
          "check": "Serious event flags (AESDTH, AESHOSP, etc.)",
          "status": "PASS",
          "details": "All 6 serious flags use valid Y/N values (all records have N)",
          "compliant_records": 10,
          "total_records": 10,
          "compliance_rate": 100.0
        },
        {
          "check": "AESTDTC ISO 8601 format",
          "status": "PASS",
          "details": "All 10 start dates are ISO 8601 compliant",
          "compliant_records": 10,
          "total_records": 10,
          "compliance_rate": 100.0
        },
        {
          "check": "AEENDTC ISO 8601 format",
          "status": "PASS",
          "details": "8 dates present, all ISO 8601 compliant (including 1 partial date YYYY-MM)",
          "compliant_records": 8,
          "total_records": 8,
          "compliance_rate": 100.0,
          "note": "2 blank end dates for ongoing events - acceptable"
        }
      ]
    },
    "business_rules": {
      "status": "PASS",
      "issues_count": 0,
      "summary": "All business rules validation checks passed",
      "checks_performed": [
        {
          "check": "Serious event logic",
          "status": "PASS",
          "details": "All 10 events have AESER='N' (non-serious), so no serious criteria required. Logic is consistent."
        },
        {
          "check": "Date logic (start <= end)",
          "status": "PASS",
          "details": "All 8 records with both start and end dates have valid date ranges. 2 records have blank end dates (ongoing events) which is acceptable."
        },
        {
          "check": "Required fields not blank",
          "status": "PASS",
          "details": "All required fields (STUDYID, DOMAIN, USUBJID, AESEQ, AETERM, AEDECOD, AESTDTC) are populated for all records"
        }
      ]
    },
    "cross_domain": {
      "status": "NOT EXECUTED",
      "issues_count": 0,
      "summary": "Cross-domain validation skipped - DM domain file not available",
      "note": "To perform cross-domain validation, provide path to DM (Demographics) domain file to verify USUBJID consistency"
    },
    "data_quality": {
      "status": "PASS",
      "issues_count": 2,
      "summary": "High data quality with minor documentation recommendations"
    }
  },
  "data_quality_metrics": {
    "completeness": {
      "overall": 89.64,
      "total_cells": 280,
      "populated_cells": 251,
      "missing_cells": 29,
      "assessment": "Good - Most data fields populated"
    },
    "variable_completeness": {
      "STUDYID": {
        "populated": 10,
        "missing": 0,
        "completeness_pct": 100.0
      },
      "DOMAIN": {
        "populated": 10,
        "missing": 0,
        "completeness_pct": 100.0
      },
      "USUBJID": {
        "populated": 10,
        "missing": 0,
        "completeness_pct": 100.0
      },
      "AESEQ": {
        "populated": 10,
        "missing": 0,
        "completeness_pct": 100.0
      },
      "AETERM": {
        "populated": 10,
        "missing": 0,
        "completeness_pct": 100.0
      },
      "AEDECOD": {
        "populated": 10,
        "missing": 0,
        "completeness_pct": 100.0
      },
      "AELLT": {
        "populated": 3,
        "missing": 7,
        "completeness_pct": 30.0,
        "note": "Optional MedDRA LLT term"
      },
      "AELLTCD": {
        "populated": 3,
        "missing": 7,
        "completeness_pct": 30.0,
        "note": "Optional MedDRA LLT code"
      },
      "AEHLT": {
        "populated": 10,
        "missing": 0,
        "completeness_pct": 100.0
      },
      "AEHLTCD": {
        "populated": 10,
        "missing": 0,
        "completeness_pct": 100.0
      },
      "AEHLGT": {
        "populated": 0,
        "missing": 10,
        "completeness_pct": 0.0,
        "note": "Optional MedDRA HLGT term"
      },
      "AEHLGTCD": {
        "populated": 0,
        "missing": 10,
        "completeness_pct": 0.0,
        "note": "Optional MedDRA HLGT code"
      },
      "AEBODSYS": {
        "populated": 10,
        "missing": 0,
        "completeness_pct": 100.0
      },
      "AESOC": {
        "populated": 10,
        "missing": 0,
        "completeness_pct": 100.0
      },
      "AESOCCD": {
        "populated": 10,
        "missing": 0,
        "completeness_pct": 100.0
      },
      "AESTDTC": {
        "populated": 10,
        "missing": 0,
        "completeness_pct": 100.0,
        "note": "Required field"
      },
      "AEENDTC": {
        "populated": 8,
        "missing": 2,
        "completeness_pct": 80.0,
        "note": "2 ongoing events without end date (acceptable)"
      },
      "AESEV": {
        "populated": 10,
        "missing": 0,
        "completeness_pct": 100.0
      },
      "AEREL": {
        "populated": 10,
        "missing": 0,
        "completeness_pct": 100.0
      },
      "AEOUT": {
        "populated": 10,
        "missing": 0,
        "completeness_pct": 100.0,
        "note": "1 invalid value"
      },
      "AESER": {
        "populated": 10,
        "missing": 0,
        "completeness_pct": 100.0
      },
      "AEACN": {
        "populated": 10,
        "missing": 0,
        "completeness_pct": 100.0
      },
      "AESDTH": {
        "populated": 10,
        "missing": 0,
        "completeness_pct": 100.0
      },
      "AESHOSP": {
        "populated": 10,
        "missing": 0,
        "completeness_pct": 100.0
      },
      "AESLIFE": {
        "populated": 10,
        "missing": 0,
        "completeness_pct": 100.0
      },
      "AESDISAB": {
        "populated": 10,
        "missing": 0,
        "completeness_pct": 100.0
      },
      "AESCONG": {
        "populated": 10,
        "missing": 0,
        "completeness_pct": 100.0
      },
      "AESMIE": {
        "populated": 10,
        "missing": 0,
        "completeness_pct": 100.0
      }
    },
    "subjects": {
      "total_subjects": 1,
      "total_events": 10,
      "avg_events_per_subject": 10.0,
      "min_events": 10,
      "max_events": 10,
      "subject_event_counts": {
        "MAXIS-08-C008_408": 10
      }
    },
    "severity_distribution": {
      "MILD": 9,
      "MODERATE": 1,
      "SEVERE": 0,
      "summary": "90% mild events, 10% moderate, no severe events reported"
    },
    "serious_events": {
      "count": 0,
      "rate_pct": 0.0,
      "summary": "No serious adverse events reported"
    },
    "relationship_distribution": {
      "NOT RELATED": 5,
      "UNLIKELY RELATED": 2,
      "POSSIBLY RELATED": 3,
      "PROBABLY RELATED": 0,
      "RELATED": 0,
      "summary": "50% not related, 30% possibly related, 20% unlikely related"
    },
    "outcome_distribution": {
      "RECOVERED/RESOLVED": 7,
      "NOT RECOVERED/NOT RESOLVED": 2,
      "DOSE NOT CHANGED": 1,
      "summary": "70% resolved, 20% ongoing, 10% invalid value",
      "note": "1 invalid outcome value needs correction"
    }
  },
  "controlled_terminology_compliance": {
    "overall_rate": 98.33,
    "total_checked": 60,
    "total_compliant": 59,
    "by_field": {
      "AESEV": {
        "checked": 10,
        "compliant": 10,
        "compliance_rate": 100.0
      },
      "AESER": {
        "checked": 10,
        "compliant": 10,
        "compliance_rate": 100.0
      },
      "AEREL": {
        "checked": 10,
        "compliant": 10,
        "compliance_rate": 100.0
      },
      "AEOUT": {
        "checked": 10,
        "compliant": 9,
        "compliance_rate": 90.0,
        "note": "1 invalid value needs correction"
      },
      "AEACN": {
        "checked": 10,
        "compliant": 10,
        "compliance_rate": 100.0
      },
      "AESDTH": {
        "checked": 10,
        "compliant": 10,
        "compliance_rate": 100.0
      }
    },
    "assessment": "Excellent controlled terminology compliance - only 1 value needs correction"
  },
  "corrective_actions": [
    {
      "priority": "CRITICAL",
      "rule_id": "CT0046",
      "issue": "AEOUT contains invalid controlled terminology value: DOSE NOT CHANGED",
      "action": "Correct mapping error for Record 6 (USUBJID=MAXIS-08-C008_408, AESEQ=6, AETERM=INSOMNIA). Change AEOUT from 'DOSE NOT CHANGED' to appropriate outcome value. Based on the record, likely should be 'NOT RECOVERED/NOT RESOLVED' or 'RECOVERING/RESOLVING'. Verify with source data.",
      "estimated_effort": "Low",
      "technical_details": "This appears to be a copy-paste error where AEACN value was duplicated to AEOUT field. Review transformation script to prevent similar errors.",
      "steps": [
        "1. Locate source record for subject MAXIS-08-C008_408, event sequence 6 (INSOMNIA)",
        "2. Determine actual outcome from source EDC system",
        "3. Update AEOUT field with correct value from controlled terminology",
        "4. Re-run transformation and validation",
        "5. Verify no other records have this mapping error"
      ]
    },
    {
      "priority": "MINOR",
      "rule_id": "SD0022",
      "issue": "AEENDTC contains partial date (YYYY-MM format)",
      "action": "Document in Study Data Reviewer's Guide (SDRG) that partial date '2008-09' for CONSTIPATION event reflects source data where day-level precision was not available. This is acceptable per ISO 8601 and SDTM standards.",
      "estimated_effort": "Low",
      "impact": "No correction needed - acceptable per standards, documentation only"
    },
    {
      "priority": "MINOR",
      "rule_id": "DQ0002",
      "issue": "Optional MedDRA coding fields incomplete",
      "action": "Consider completing MedDRA hierarchy coding at all levels (LLT, HLGT) for comprehensive safety reporting. While not required, full coding facilitates cross-study safety analyses.",
      "estimated_effort": "Medium",
      "impact": "Recommended enhancement, not required for submission"
    }
  ],
  "regulatory_assessment": {
    "fda_submission_readiness": "NOT READY - REQUIRES CORRECTION",
    "critical_blockers": [
      "1 controlled terminology error in AEOUT field must be corrected"
    ],
    "warnings_to_document": [
      "1 partial date (acceptable but should be explained in SDRG)",
      "2 blank end dates for ongoing events (acceptable and expected)"
    ],
    "recommendations": [
      "Correct AEOUT value for record 6",
      "Document partial dates in Study Data Reviewer's Guide",
      "Consider completing optional MedDRA hierarchy fields",
      "Include DM domain for comprehensive cross-domain validation",
      "After corrections, re-validate to confirm >95% compliance score"
    ],
    "estimated_time_to_ready": "1-2 hours",
    "confidence_level": "High - Only 1 field value needs correction"
  },
  "summary": {
    "overall_quality": "GOOD",
    "structural_quality": "EXCELLENT",
    "conformance_quality": "GOOD",
    "data_completeness": "GOOD",
    "key_strengths": [
      "All required SDTMIG 3.4 variables present",
      "No duplicate records",
      "Sequential AESEQ numbering correct",
      "98.3% controlled terminology compliance",
      "ISO 8601 date formats compliant",
      "Serious event logic consistent",
      "89.6% overall data completeness"
    ],
    "key_issues": [
      "1 invalid AEOUT value (easy to correct)",
      "Some optional MedDRA fields incomplete (enhancement opportunity)"
    ],
    "validation_confidence": "HIGH",
    "dataset_maturity": "PRODUCTION-READY (after correction)",
    "next_steps": [
      "1. Correct AEOUT value for record 6",
      "2. Re-run validation to confirm 100% compliance",
      "3. Document partial dates in SDRG",
      "4. Perform cross-domain validation with DM",
      "5. Generate Define-XML metadata",
      "6. Prepare for FDA submission"
    ]
  }
}
